time(ms),accelerometerAccelerationX,accelerometerAccelerationY,accelerometerAccelerationZ
0,0.02722168,-0.385192871,-1.000930786
9.675,-0.004272461,-0.359024048,-0.956222534
19.361,-0.030975342,-0.324005127,-0.917221069
29.042,0.007217407,-0.273132324,-0.891983032
38.697,0.054000854,-0.279602051,-0.888336182
48.4,0.024459839,-0.29826355,-0.889022827
58.08,-0.008895874,-0.314071655,-0.846115112
67.75,-0.013458252,-0.392440796,-0.559707642
77.424,-0.008666992,-0.3409729,-0.717681885
87.119,-0.03729248,-0.321029663,-0.892623901
96.793,-0.050338745,-0.309951782,-1.029556274
106.479,-0.099578857,-0.284561157,-1.108459473
116.137,-0.063491821,-0.132049561,-1.091766357
125.838,-0.122772217,-0.048583984,-1.013839722
135.519,-0.173019409,-0.155136108,-0.906463623
145.173,-0.244400024,-0.193984985,-0.830841064
154.878,-0.232299805,-0.204284668,-0.774078369
164.558,-0.204437256,-0.178268433,-0.738586426
174.227,-0.201705933,-0.154785156,-0.709609985
183.919,-0.194992065,-0.131973267,-0.708465576
193.599,-0.20602417,-0.092300415,-0.717330933
203.249,-0.20211792,-0.054748535,-0.729522705
212.893,-0.196777344,-0.059524536,-0.755493164
222.572,-0.20539856,-0.097427368,-0.777877808
232.224,-0.198944092,-0.119857788,-0.812988281
241.933,-0.172531128,-0.148788452,-0.879226685
251.612,-0.150604248,-0.187576294,-0.917694092
261.276,-0.120437622,-0.217391968,-0.893203735
270.973,0.243927002,-0.363998413,-1.146759033
280.653,0.296478271,-0.417053223,-1.383911133
290.322,0.143112183,-0.337265015,-1.021377563
300.003,0.014892578,-0.322265625,-0.814193726
309.693,0.046478271,-0.273895264,-0.718780518
319.373,-0.008651733,-0.142807007,-0.630813599
329.028,-0.095748901,-0.016983032,-0.644622803
338.731,-0.090072632,0.053604126,-0.935287476
348.408,-0.124465942,-0.018218994,-0.994949341
358.088,-0.175064087,-0.099853516,-0.881408691
367.744,-0.191513062,-0.093322754,-0.887268066
377.432,-0.19291687,-0.045059204,-0.991149902
387.114,-0.153686523,-0.017379761,-0.95223999
396.796,-0.102966309,0.008087158,-0.851135254
406.479,-0.164031982,0.000656128,-0.857650757
416.17,-0.158096313,0.057235718,-0.954559326
425.823,-0.369552612,0.111877441,-0.923126221
435.527,-0.386871338,0.207687378,-0.992095947
445.206,-0.306030273,0.187454224,-1.011749268
454.878,-0.233123779,0.10005188,-0.916091919
464.563,-0.275390625,0.046691895,-0.864990234
474.241,-0.315933228,-0.112915039,-0.808868408
483.922,-0.247879028,-0.132293701,-0.834457397
493.602,-0.092224121,-0.014511108,-0.862411499
503.266,-0.017822266,0.046142578,-0.759567261
512.96,-0.056015015,0.034286499,-0.854721069
522.64,-0.017990112,0.060241699,-0.906387329
532.301,0.023681641,0.095275879,-0.935943604
541.998,0.049240112,0.13508606,-0.919967651
551.679,0.056335449,0.1668396,-0.924163818
561.356,0.034225464,0.198028564,-0.921508789
571.034,0.00932312,0.223434448,-0.893493652
580.713,-0.004928589,0.227798462,-0.861083984
590.389,-0.033584595,0.247436523,-0.829620361
600.07,-0.034240723,0.272064209,-0.807327271
609.746,0.002548218,0.280700684,-0.765960693
619.419,0.018829346,0.303817749,-0.719116211
629.106,0.005081177,0.326766968,-0.70375061
638.786,-0.012512207,0.344146729,-0.707382202
648.464,-0.027313232,0.370529175,-0.705108643
658.143,-0.067398071,0.403274536,-0.71572876
667.822,-0.111114502,0.461181641,-0.733856201
677.501,-0.140457153,0.468490601,-0.804992676
687.18,-0.169769287,0.45703125,-0.828399658
696.854,-0.200820923,0.464614868,-0.858322144
706.538,-0.249084473,0.485794067,-0.884765625
716.215,-0.357879639,0.504714966,-0.929519653
725.876,-0.455780029,0.528839111,-0.963485718
735.565,-0.510955811,0.54145813,-0.991622925
745.25,-0.608352661,0.544921875,-0.982574463
754.919,-0.730422974,0.553985596,-0.933258057
764.608,-0.856628418,0.548294067,-0.898101807
774.287,-0.981826782,0.538619995,-0.853927612
783.966,-1.110931396,0.516876221,-0.780670166
793.645,-1.218353271,0.472106934,-0.70552063
803.299,-1.310592651,0.431442261,-0.622299194
812.973,-1.405288696,0.393585205,-0.526260376
822.682,-1.473297119,0.351669312,-0.420837402
832.35,-1.512023926,0.327163696,-0.320449829
842.031,-1.537261963,0.292037964,-0.246917725
851.716,-1.476303101,0.193649292,-0.1537323
861.374,-1.448516846,0.170135498,-0.077316284
871.061,-1.394073486,0.151321411,-0.016052246
880.742,-1.334701538,0.1015625,0.03187561
890.436,-1.310501099,0.074401855,0.09034729
900.118,-1.325195313,0.077285767,0.139663696
909.798,-1.349151611,0.090805054,0.177597046
919.461,-1.360153198,0.107421875,0.196029663
929.154,-1.372009277,0.123001099,0.214782715
938.825,-1.363815308,0.130935669,0.216262817
948.511,-1.330749512,0.114974976,0.221496582
958.19,-1.303283691,0.095687866,0.212631226
967.85,-1.255386353,0.085739136,0.203094482
977.547,-1.198135376,0.075546265,0.188140869
987.227,-1.158111572,0.060211182,0.171340942
996.903,-1.124572754,0.050811768,0.181396484
1006.584,-1.102462769,0.039108276,0.183746338
1016.251,-1.101531982,0.032058716,0.207885742
1025.925,-1.12059021,0.050750732,0.257537842
1035.619,-1.109466553,0.02130127,0.337234497
1045.3,-1.111343384,0.030593872,0.344116211
1054.977,-1.076766968,0.083435059,0.392181396
1064.659,-1.042922974,0.114593506,0.449081421
1074.339,-1.060913086,0.124099731,0.408859253
1084.011,-1.074493408,0.116973877,0.323440552
1093.699,-1.093643188,0.094772339,0.254852295
1103.379,-1.09413147,0.103744507,0.181488037
1113.058,-1.077484131,0.147720337,0.09185791
1122.735,-1.032699585,0.183914185,0.018585205
1132.414,-1.017440796,0.188598633,-0.036514282
1142.086,-1.030929565,0.175338745,-0.124710083
1151.772,-1.027297974,0.200134277,-0.146957397
1161.448,-1.044311523,0.260299683,-0.154937744
1171.129,-1.0181427,0.279815674,-0.197723389
1180.806,-0.981063843,0.247543335,-0.233779907
1190.476,-0.953994751,0.205657959,-0.244247437
1200.162,-0.969406128,0.165786743,-0.132659912
1209.841,-0.968917847,0.147476196,-0.17906189
1219.499,-0.946990967,0.206634521,-0.229385376
1229.2,-0.911773682,0.275192261,-0.138671875
1238.879,-0.878768921,0.250869751,-0.076980591
1248.55,-0.87588501,0.147689819,-0.084945679
1258.238,-0.895355225,0.150131226,-0.108215332
1267.899,-0.930358887,0.215194702,0.000747681
1277.573,-0.951782227,0.237915039,-0.018280029
1287.247,-0.960235596,0.210769653,-0.07359314
1296.921,-0.951141357,0.228378296,-0.116226196
1306.605,-0.896347046,0.308883667,-0.160491943
1316.281,-0.921676636,0.191833496,-0.064620972
1325.985,-0.952804565,0.162109375,-0.056488037
1335.65,-0.869293213,0.31300354,0.011123657
1345.334,-0.815765381,0.333602905,0.047912598
1355.016,-0.809707642,0.244857788,0.061599731
1364.686,-0.756942749,0.251541138,0.055801392
1374.374,-0.765609741,0.268096924,-0.032897949
1384.052,-0.830718994,0.239837646,-0.124984741
1393.739,-0.870819092,0.210861206,-0.172515869
1403.418,-0.944869995,0.175064087,-0.184799194
1413.096,-1.018096924,0.215698242,-0.245071411
1422.773,-1.002120972,0.337097168,-0.33013916
1432.456,-1.013626099,0.298095703,-0.336303711
1442.136,-0.986938477,0.233398438,-0.321731567
1451.816,-0.88671875,0.258422852,-0.281433105
1461.476,-0.81439209,0.251098633,-0.270339966
1471.177,-0.744781494,0.206878662,-0.251113892
1480.856,-0.732513428,0.161819458,-0.263427734
1490.525,-0.721588135,0.171722412,-0.273132324
1500.217,-0.6927948,0.183166504,-0.26713562
1509.897,-0.700210571,0.174163818,-0.264144897
1519.576,-0.713760376,0.16960144,-0.258529663
1529.259,-0.695068359,0.17868042,-0.226638794
1538.939,-0.708679199,0.113388062,0.116836548
1548.599,-0.807525635,0.065582275,0.490600586
1558.297,-0.822814941,0.086486816,0.335281372
1567.975,-0.720169067,0.08303833,0.214370728
1577.653,-0.689834595,0.161956787,0.045623779
1587.333,-0.804534912,0.29699707,-0.160797119
1597.012,-0.84437561,0.285125732,-0.274475098
1606.692,-0.864730835,0.234405518,-0.30027771
1616.372,-0.943817139,0.201843262,-0.312728882
1626.025,-1.037948608,0.191955566,-0.263793945
1635.73,-1.07875061,0.176025391,-0.181533813
1645.41,-1.069259644,0.101547241,-0.198120117
1655.075,-1.086456299,0.104751587,-0.268585205
1664.77,-1.077850342,0.086853027,-0.266143799
1674.445,-1.037017822,0.126159668,-0.294616699
1684.121,-0.975906372,0.10067749,-0.283416748
1693.809,-0.941513062,0.159606934,-0.207962036
1703.488,-0.871765137,0.206100464,-0.186416626
1713.168,-0.845718384,0.185180664,-0.233184814
1722.847,-0.799880981,0.162307739,-0.188552856
1732.526,-0.752166748,0.180023193,-0.215133667
1742.205,-0.802856445,0.257629395,-0.197189331
1751.86,-0.806564331,0.351730347,-0.139648438
1761.552,-0.816177368,0.32649231,-0.130630493
1771.246,-0.829559326,0.141067505,-0.23324585
1780.811875,-0.789352417,0.198516846,-0.261886597
1790.488875,-1.060913086,0.444152832,-0.323303223
1800.174875,-1.235046387,0.547698975,-0.387863159
1809.855875,-1.213577271,0.494415283,-0.537780762
1819.513875,-1.009338379,0.289993286,-0.515731812
1829.204875,-0.83164978,0.374450684,-0.43069458
1838.885875,-0.828201294,0.918258667,-0.214553833
1848.565875,-0.73840332,0.637374878,-0.30065918
1858.244875,-0.754745483,0.615142822,-0.231307983
1867.923875,-0.749267578,0.658432007,-0.120025635
1877.615875,-0.734375,0.672027588,-0.018417358
1887.298875,-0.759841919,0.677383423,0.002624512
1896.977875,-0.819473267,0.820220947,-0.038696289
1906.656875,-0.739517212,1.015533447,-0.138198853
1916.335875,-0.592559814,0.989578247,-0.150299072
1925.999875,-0.569900513,0.930374146,-0.09954834
1935.693875,-0.549987793,0.82673645,-0.113510132
1945.372875,-0.511108398,0.790222168,-0.219894409
1955.022875,-0.454193115,0.72428894,-0.185241699
1964.729875,-0.427642822,0.714447021,-0.179931641
1974.408875,-0.399383545,0.767852783,-0.175857544
1984.078875,-0.378540039,0.864883423,-0.218551636
1993.766875,-0.200897217,1.050506592,-0.327545166
2003.447875,-0.129928589,1.214981079,-0.390716553
2013.121875,-0.219390869,1.405944824,-0.348266602
2022.809875,-0.398010254,1.382354736,-0.092697144
2032.475875,-0.544921875,1.087127686,-0.043624878
2042.170875,-0.595474243,1.007568359,-0.094161987
2051.850875,-0.620956421,0.786804199,-0.156204224
2061.531875,-0.733718872,0.520263672,-0.173156738
2071.211875,-0.832122803,0.258224487,-0.132537842
2080.884875,-0.944915771,0.097961426,-0.103485107
2090.550875,-1.068893433,0.016616821,-0.088287354
2100.252875,-0.988052368,0.152587891,-0.118881226
2109.931875,-0.737945557,0.372360229,-0.160629272
2119.598875,-0.596389771,0.528457642,-0.194015503
2129.289875,-0.5597229,0.587127686,-0.231887817
2138.969875,-0.522399902,0.590255737,-0.22593689
2148.637875,-0.505661011,0.540390015,-0.181915283
2158.326875,-0.482421875,0.538574219,-0.128555298
2168.005875,-0.449386597,0.513687134,-0.053024292
2177.684875,-0.411468506,0.493103027,-0.015701294
2187.366875,-0.382232666,0.480545044,-0.054718018
2197.025875,-0.3800354,0.367889404,-0.014770508
2206.723875,-0.387756348,0.444458008,-0.106430054
2216.401875,-0.345352173,0.497238159,-0.141586304
2226.080875,-0.210510254,0.755477905,-0.058792114
2235.759875,-0.205993652,1.124694824,-0.485427856
2245.438875,-0.292221069,1.751235962,-0.647857666
2255.103875,-0.438140869,1.960861206,-0.073852539
2264.796875,-0.38911438,2.053512573,0.067840576
2274.476875,-0.715774536,1.893692017,0.126708984
2284.132875,-0.730392456,1.556442261,0.06980896
2293.828875,-0.609924316,1.387359619,0.080673218
2303.507875,-0.498336792,1.202865601,0.048461914
2313.171875,-0.464767456,1.099411011,-0.002975464
2322.851875,-0.395751953,0.989120483,-0.088394165
2332.531875,-0.348800659,0.899505615,-0.11328125
2342.213875,-0.286468506,0.664886475,-0.142501831
2351.892875,-0.246704102,0.578872681,-0.087677002
2361.572875,-0.355056763,0.616424561,-0.076034546
2371.268875,-0.483139038,0.71421814,-0.106704712
2380.948875,-0.529205322,0.782241821,-0.109313965
2390.629875,-0.543807983,0.756332397,-0.811553955
2400.308875,-0.632324219,0.784835815,0.010879517
2409.988875,-0.560668945,0.797180176,-0.290618896
2419.651875,-0.47505188,0.805679321,-0.202972412
2429.348875,-0.409622192,0.810089111,-0.133270264
2438.999875,-0.362426758,0.814407349,-0.119232178
2448.702875,-0.358535767,0.781768799,-0.100402832
2458.384875,-0.344345093,0.796783447,-0.130767822
2468.064875,-0.282669067,0.833099365,-0.211273193
2477.737875,-0.260299683,0.874359131,-0.237823486
2487.398875,-0.234786987,0.877120972,-0.181716919
2497.102875,-0.261291504,0.864212036,-0.113845825
2506.783875,-0.289550781,0.77684021,-0.037948608
2516.464875,-0.314147949,0.70475769,0.058792114
2526.145875,-0.350814819,0.702636719,0.092910767
2535.824875,-0.351531982,0.71647644,0.007247925
2545.505875,-0.332077026,0.715377808,-0.112838745
2555.181875,-0.323318481,0.72555542,-0.176422119
2564.868875,-0.327178955,0.739257813,-0.193359375
2574.549875,-0.312728882,0.762786865,-0.19190979
2584.202875,-0.293884277,0.811019897,-0.213943481
2593.912875,-0.272674561,0.859939575,-0.240386963
2603.593875,-0.260635376,0.864379883,-0.207275391
2613.264875,-0.24269104,0.846801758,-0.113510132
2622.954875,-0.228515625,0.868408203,-0.042160034
2632.634875,-0.225296021,0.829910278,0.007598877
2642.312875,-0.225982666,0.786102295,0.012252808
2651.991875,-0.124435425,0.550506592,-0.033981323
2661.671875,-0.107269287,0.449905396,-0.085250854
2671.351875,-0.033615112,0.496871948,-0.154220581
2681.033875,0.009185791,0.557678223,-0.118545532
2690.708875,0.094924927,0.703216553,-0.082077026
2700.395875,0.123779297,0.75402832,0.020889282
2710.075875,0.173797607,0.899185181,0.179611206
2719.730875,0.201507568,0.975692749,0.139846802
2729.432875,-0.027374268,0.73866272,-0.180648804
2739.113875,-0.00390625,0.698135376,-0.059875488
2748.784875,0.054138184,0.676818848,-0.090332031
2758.457875,0.088867188,0.641921997,-0.092102051
2768.155875,0.07093811,0.570205688,-0.031539917
2777.827875,0.076522827,0.471572876,-0.090698242
2787.498875,0.14074707,0.457748413,-0.16305542
2797.184875,0.188705444,0.459518433,-0.209701538
2806.858875,0.246017456,0.49597168,-0.249557495
2816.543875,0.298812866,0.50769043,-0.264129639
2826.230875,0.337921143,0.554824829,-0.240737915
2835.901875,0.79876709,3.255477905,-0.293212891
2845.584875,1.236038208,5.548217773,-0.187362671
2855.260875,0.886001587,4.061553955,-0.249084473
2864.946875,0.531097412,2.367080688,-0.270019531
2874.627875,0.302871704,1.344024658,-0.222732544
2884.312875,0.189254761,0.829452515,-0.136932373
2894.004875,0.168029785,0.566833496,-0.04888916
2903.622875,0.178756714,0.482086182,0.006988525
2913.287875,0.22883606,0.555023193,0.024871826
2922.982875,0.306686401,0.736785889,0.000320435
2932.659875,0.381256104,0.91569519,-0.051132202
2942.340875,0.441986084,1.029495239,-0.114608765
2952.021875,0.48777771,1.050338745,-0.176803589
2961.701875,0.520263672,1.018173218,-0.20942688
2971.366875,0.541870117,0.975158691,-0.204864502
2981.062875,0.546173096,0.94909668,-0.178253174
2990.743875,0.522567749,0.9271698,-0.142532349
3000.414875,0.460601807,0.892623901,-0.113204956
3010.102875,0.412063599,0.892364502,-0.085723877
3019.783875,0.370635986,0.894104004,-0.073532104
3029.463875,0.333587646,0.86378479,-0.07119751
3039.142875,0.321014404,0.750869751,-0.074813843
3048.823875,0.341445923,0.683456421,-0.100585938
3058.503875,0.441635132,0.806503296,-0.156738281
3068.185875,0.446136475,0.792877197,-0.175338745
3077.838875,0.41267395,0.824157715,-0.164428711
3087.546875,0.409469604,0.93296814,-0.165405273
3097.227875,0.415603638,1.035766602,-0.173782349
3106.891875,0.403823853,1.07875061,-0.174331665
3116.590875,0.385635376,1.114654541,-0.162368774
3126.270875,0.362609863,1.128417969,-0.130767822
3135.941875,0.336334229,1.118896484,-0.082107544
3145.617875,0.310043335,1.082138062,-0.026611328
3155.313875,0.29234314,1.04284668,0.038497925
3164.987875,0.283691406,1.008514404,0.076095581
3174.675875,0.286437988,0.979492188,0.083969116
3184.354875,0.304794312,0.958999634,0.056213379
3194.035875,0.336334229,0.952163696,0.003540039
3203.714875,0.362533569,0.94430542,-0.052642822
3213.392875,0.381759644,0.937332153,-0.096572876
3223.072875,0.395797729,0.935958862,-0.142807007
3232.732875,0.412094116,0.935897827,-0.181228638
3242.416875,0.425949097,0.931533813,-0.203796387
3252.109875,0.439590454,0.924804688,-0.210128784
3261.765875,0.445861816,0.910476685,-0.210769653
3271.442875,0.446578979,0.908126831,-0.209197998
3281.147875,0.440612793,0.911117554,-0.208450317
3290.820875,0.421417236,0.905761719,-0.201461792
3300.484875,0.38999939,0.892288208,-0.197387695
3310.168875,0.354049683,0.875930786,-0.196716309
3319.847875,0.3309021,0.857757568,-0.175094604
3329.530875,0.318649292,0.843170166,-0.165512085
3339.210875,0.299514771,0.811660767,-0.176254272
3348.894875,0.29776001,0.77381897,-0.164474487
3358.572875,0.313415527,0.748428345,-0.174072266
3368.270875,0.355133057,0.760955811,-0.199691772
3377.948875,0.405395508,0.820739746,-0.209671021
3387.631875,0.445999146,0.911132813,-0.20173645
3397.312875,0.473297119,0.984893799,-0.176132202
3406.969875,0.479263306,1.02911377,-0.154098511
3416.674875,0.473815918,1.045043945,-0.133636475
3426.355875,0.437438965,1.051712036,-0.12828064
3436.009875,0.367889404,1.041000366,-0.140914917
3445.717875,0.28187561,1.013381958,-0.172317505
3455.399875,0.195083618,1.026870728,-0.218460083
3465.072875,0.140380859,1.057693481,-0.237792969
3474.732875,0.066635132,1.103881836,-0.237991333
3484.439875,0.013549805,1.167480469,-0.213470459
3494.119875,-0.040466309,1.241928101,-0.15687561
3503.798875,-0.051101685,1.299850464,-0.12322998
3513.477875,-0.033752441,1.302886963,-0.119674683
3523.162875,-0.011856079,1.255477905,-0.139251709
3532.842875,0.027008057,1.18536377,-0.151565552
3542.498875,0.094207764,1.109680176,-0.142684937
3552.204875,0.166610718,1.037994385,-0.130599976
3561.883875,0.202301025,0.945388794,-0.124481201
3571.551875,0.255767822,0.888183594,-0.138900757
3581.245875,0.315689087,0.833312988,-0.150482178
3590.924875,0.365142822,0.787826538,-0.159072876
3600.595875,0.406524658,0.793212891,-0.167312622
3610.285875,0.424621582,0.836547852,-0.182098389
3619.967875,0.419967651,0.89302063,-0.165756226
3629.635875,0.401351929,0.92880249,-0.130401611
3639.330875,0.360549927,0.918548584,-0.080673218
3649.010875,0.300628662,0.91178894,-0.022781372
3658.694875,0.21647644,0.885559082,-0.00479126
3668.376875,0.157867432,0.863739014,-0.003753662
3678.027875,0.089752197,0.877746582,0.00932312
3687.735875,0.021591187,0.923965454,0.012969971
3697.416875,-0.017364502,0.975357056,0.016906738
3707.080875,-0.038635254,1.001296997,0.018829346
3716.779875,-0.020477295,1.004470825,0.03263855
3726.458875,0.014831543,0.985214233,0.019317627
3736.133875,0.052902222,0.953674316,-0.004592896
3745.821875,0.084671021,0.928543091,-0.020675659
3755.481875,0.10723877,0.910293579,-0.033111572
3765.160875,0.126037598,0.911468506,-0.031311035
3774.865875,0.145248413,0.92489624,-0.027114868
3784.546875,0.16796875,0.952270508,-0.018798828
3794.219875,0.179550171,0.975875854,-0.013641357
3803.894875,0.208724976,0.988540649,-0.016937256
3813.587875,0.2368927,0.985641479,-0.039154053
3823.250875,0.268936157,0.960708618,-0.068206787
3832.931875,0.300140381,0.943725586,-0.087768555
3842.607875,0.328063965,0.974243164,-0.12701416
3852.295875,0.330169678,1.056625366,-0.168945313
3861.976875,0.302658081,1.157363892,-0.192871094
3871.676875,0.24659729,1.240753174,-0.210922241
3881.335875,0.195724487,1.264678955,-0.22869873
3891.039875,0.188018799,1.238143921,-0.221008301
3900.715875,0.223144531,1.178482056,-0.133621216
3910.403875,0.272888184,1.127929688,-0.012619019
3920.085875,0.282150269,1.113296509,0.062713623
3929.759875,0.257369995,1.122772217,0.076599121
3939.448875,0.21031189,1.152282715,0.055969238
3949.128875,0.191665649,1.227340698,0.028244019
3958.789875,0.173736572,1.327545166,-0.012359619
3968.489875,0.151245117,1.391662598,-0.057723999
3978.170875,0.147171021,1.445831299,-0.074142456
3987.850875,0.17137146,1.471176147,-0.074081421
3997.531875,0.209396362,1.468383789,-0.077331543
4007.190875,0.288757324,1.439025879,-0.072372437
4016.892875,0.343170166,1.373641968,-0.047775269
4026.572875,0.363830566,1.290679932,-0.009887695
4036.242875,0.339889526,1.228424072,0.04083252
4045.933875,0.28326416,1.172576904,0.096343994
4055.614875,0.214416504,1.125930786,0.16204834
4065.293875,0.165878296,1.075531006,0.226577759
4074.974875,0.119369507,1.0262146,0.279220581
4084.643875,0.088348389,0.997268677,0.319335938
4094.326875,0.096237183,0.981964111,0.323959351
4104.013875,0.118804932,0.999298096,0.293777466
4113.689875,0.145858765,1.070922852,0.319564819
4123.372875,0.164657593,1.147171021,0.356933594
4133.051875,0.198989868,1.266937256,0.327545166
4142.710875,0.30696106,1.344314575,0.236816406
4152.412875,0.419494629,1.382202148,0.051895142
4162.066875,0.423248291,1.318588257,-0.150344849
4171.770875,0.39364624,1.183624268,-0.34526062
4181.452875,0.391387939,1.176040649,-0.403533936
4191.132875,0.311279297,1.253051758,-0.352111816
4200.793875,0.261444092,1.280822754,-0.213943481
4210.492875,0.163421631,1.411590576,-0.122497559
4220.174875,-0.015151978,1.626358032,-0.096832275
4229.846875,-0.14352417,1.500549316,0.284866333
4239.525875,-0.031204224,1.233566284,0.27003479
4249.217875,0.16166687,1.027633667,0.132629395
4258.899875,0.335159302,0.99609375,0.148040771
4268.556875,0.479171753,0.991775513,0.175079346
4278.247875,0.525894165,0.907424927,0.209671021
4287.942875,0.510879517,0.855072021,0.230529785
4297.622875,0.425262451,0.806182861,0.149078369
4307.300875,0.339874268,0.802856445,-0.00592041
4316.964875,0.231796265,0.913711548,-0.16267395
4326.647875,0.101150513,1.073425293,-0.026672363
4336.323875,0.024551392,1.126968384,0.089279175
4346.011875,0.017028809,1.056671143,0.066207886
4355.693875,0.016403198,0.917541504,0.184051514
4365.374875,0.019485474,0.763000488,0.201004028
4375.374875,0.017486572,0.625946045,0.265899658
4385.002875,0.032516479,0.513946533,0.362167358
4394.682875,0.08430481,0.431762695,0.344833374
4404.344875,0.126922607,0.395065308,0.309326172
4414.024875,0.11517334,0.385177612,0.311859131
4423.728875,0.109375,0.386306763,0.304550171
4433.411875,0.132858276,0.365783691,0.32875061
4443.075875,0.169631958,0.35949707,0.411239624
4452.757875,0.169845581,0.338119507,0.459396362
4462.438875,0.168609619,0.311340332,0.5340271
4472.137875,0.175735474,0.289855957,0.604873657
4481.817875,0.191925049,0.277816772,0.67427063
4491.497875,0.211288452,0.315582275,0.672531128
4501.153875,0.209594727,0.41015625,0.627883911
4510.858875,0.157699585,0.509689331,0.56552124
4520.542875,0.074157715,0.579971313,0.509887695
4530.224875,0.0415802,0.600219727,0.424865723
4539.899875,0.097183228,0.570648193,0.362930298
4549.588875,0.171310425,0.519989014,0.346481323
4559.270875,0.19468689,0.48147583,0.348983765
4568.931875,0.184020996,0.449142456,0.340866089
4578.633875,0.165206909,0.450485229,0.449645996
4588.313875,0.072677612,0.583450317,0.84854126
4597.981875,-0.018768311,0.898239136,1.205581665
4607.667875,-0.059524536,1.33694458,1.096923828
4617.347875,0.114562988,1.577133179,0.85710144
4627.021875,0.238128662,1.716766357,0.819381714
4636.702875,0.076339722,1.917144775,0.72303772
4646.381875,-0.062789917,1.841125488,0.371429443
4656.063875,-0.003326416,1.428390503,0.275497437
4665.743875,0.092483521,0.946853638,0.34677124
4675.424875,0.232727051,0.578826904,0.380508423
4685.106875,0.355224609,0.342803955,0.566345215
4694.787875,0.333526611,0.303207397,0.605773926
4704.460875,0.20916748,0.42906189,0.426986694
4714.150875,0.135360718,0.609100342,0.235015869
4723.832875,0.121002197,0.782485962,0.090744019
4733.512875,0.179351807,0.951248169,0.107925415
4743.196875,0.25718689,1.086257935,0.26222229
4752.877875,0.307876587,1.190811157,0.409423828
4762.547875,0.292449951,1.234451294,0.412597656
4772.237875,0.239471436,1.207946777,0.355285645
4781.913875,0.188461304,1.127532959,0.299621582
4791.593875,0.176345825,1.010574341,0.280273438
4801.281875,0.186386108,0.891738892,0.279281616
4810.961875,0.219329834,0.799255371,0.302322388
4820.641875,0.263214111,0.744613647,0.329040527
4830.312875,0.283782959,0.726837158,0.336196899
4839.988875,0.276397705,0.726730347,0.302825928
4849.683875,0.250137329,0.734542847,0.253448486
4859.364875,0.21005249,0.757141113,0.226989746
4869.039875,0.168365479,0.785400391,0.216415405
4878.725875,0.115356445,0.819046021,0.220123291
4888.404875,0.052963257,0.838180542,0.205123901
4898.054875,0.017211914,0.857147217,0.190414429
4907.753875,-0.022842407,0.894607544,0.139068604
4917.443875,-0.035003662,0.937240601,0.133331299
4927.104875,-0.023727417,0.985565186,0.153594971
4936.783875,-0.009857178,1.024963379,0.188232422
4946.464875,-0.00151062,1.0340271,0.226699829
4956.140875,-0.000869751,1.02281189,0.255050659
4965.824875,-0.000305176,0.990783691,0.274215698
4975.523875,0.005477905,0.953796387,0.28163147
4985.203875,0.021240234,0.935043335,0.298477173
4994.884875,0.042922974,0.9503479,0.313552856
5004.565875,0.068191528,0.996398926,0.311920166
5014.247875,0.098556519,1.039794922,0.299499512
5023.927875,0.119186401,1.066101074,0.287734985
5033.589875,0.129013062,1.054779053,0.272628784
5043.210875,0.144287109,1.004150391,0.269165039
5052.893875,0.160507202,0.9400177,0.251937866
5062.575875,0.1690979,0.888458252,0.230575562
5072.258875,0.164810181,0.866073608,0.221450806
5081.946875,0.147186279,0.866394043,0.19883728
5091.630875,0.131942749,0.883102417,0.163360596
5101.320875,0.133758545,0.906768799,0.154434204
5111.002875,0.172241211,0.903701782,0.121490479
5120.657875,0.24156189,0.862976074,0.050308228
5130.364875,0.291015625,0.823669434,0.097229004
5140.045875,0.284042358,0.82925415,0.213882446
5149.719875,0.222915649,0.875167847,0.293319702
5159.408875,0.166763306,0.950073242,0.316299438
5169.089875,0.115951538,1.055938721,0.290679932
5178.768875,0.095108032,1.151901245,0.307113647
5188.450875,0.078811646,1.163452148,0.323455811
5198.126875,0.12020874,1.080230713,0.244598389
5207.806875,0.244857788,0.883728027,0.108581543
5217.495875,0.415054321,0.690292358,0.104187012
5227.157875,0.527145386,0.547332764,0.254699707
5236.858875,0.553787231,0.471160889,0.438430786
5246.540875,0.463134766,0.515365601,0.509231567
5256.201875,0.288955688,0.689758301,0.462493896
5265.903875,0.108276367,0.912612915,0.423095703
5275.584875,0.02255249,1.105941772,0.364578247
5285.254875,0.115402222,1.194488525,0.328536987
5294.946875,0.280258179,1.1587677,0.319076538
5304.628875,0.436935425,1.054321289,0.295944214
5314.295875,0.541122437,0.96244812,0.341842651
5323.989875,0.517303467,0.866897583,0.426269531
5333.670875,0.39692688,0.793670654,0.550613403
5343.351875,0.306686401,0.742584229,0.718399048
5353.033875,0.369445801,0.653213501,1.032119751
5362.697875,0.488586426,0.55329895,1.292510986
5372.394875,0.618164063,0.561508179,1.369491577
5382.074875,0.624816895,0.779281616,1.318405151
5391.730875,0.468643188,1.04095459,1.196075439
5401.436875,0.262191772,1.136184692,1.045898438
5411.108875,0.083190918,1.060714722,0.829330444
5420.782875,-0.015472412,0.878158569,0.639587402
5430.475875,-0.051177979,0.629379272,0.552352905
5440.153875,-0.082397461,0.384338379,0.487884521
5449.826875,-0.143310547,0.207382202,0.430023193
5459.509875,-0.201080322,0.083175659,0.423995972
5469.197875,-0.201004028,0.042999268,0.456542969
5478.878875,-0.152389526,0.077804565,0.504898071
5488.531875,-0.085128784,0.161712646,0.539016724
5498.242875,-0.01512146,0.255523682,0.530258179
5507.910875,0.062774658,0.33493042,0.499359131
5517.581875,0.157562256,0.399032593,0.466308594
5527.256875,0.229766846,0.445297241,0.423904419
5536.947875,0.300735474,0.488189697,0.375915527
5546.628875,0.349990845,0.526489258,0.333938599
5556.305875,0.374649048,0.54637146,0.299850464
5565.991875,0.370773315,0.552871704,0.270141602
5575.671875,0.346862793,0.550689697,0.248901367
5585.342875,0.310562134,0.557174683,0.196853638
5595.050875,0.293319702,0.585037231,0.166503906
5604.731875,0.287261963,0.637863159,0.142807007
5614.403875,0.291748047,0.713272095,0.140411377
5624.091875,0.288787842,0.800125122,0.1302948
5633.772875,0.288208008,0.913101196,0.112976074
5643.439875,0.296203613,1.049697876,0.126815796
5653.134875,0.295837402,1.18977356,0.150115967
5662.815875,0.280975342,1.315536499,0.201828003
5672.494875,0.251068115,1.418197632,0.260894775
5682.174875,0.20463562,1.47052002,0.301315308
5691.852875,0.161254883,1.453277588,0.314224243
5701.532875,0.113342285,1.40246582,0.301147461
5711.212875,0.083862305,1.306655884,0.27053833
5720.892875,0.099365234,1.174407959,0.205825806
5730.573875,0.125335693,1.02130127,0.142120361
5740.251875,0.169906616,0.873031616,0.082260132
5749.915875,0.19102478,0.779815674,-0.011398315
5759.608875,0.251724243,0.746643066,-0.072021484
5769.286875,0.318511963,0.74432373,-0.046798706
5778.960875,0.386749268,0.745361328,-0.043121338
5788.646875,0.395355225,0.779205322,-0.067367554
5798.315875,0.384735107,0.806945801,-0.10949707
5808.005875,0.410369873,0.849456787,-0.129196167
5817.686875,0.442459106,0.926834106,-0.144012451
5827.338875,0.448410034,0.966720581,-0.113220215
5837.046875,0.443634033,0.915924072,0.012908936
5846.728875,0.448165894,0.854980469,0.134674072
5856.391875,0.43560791,0.800720215,0.263778687
5866.085875,0.434432983,0.808944702,0.361877441
5875.764875,0.430969238,0.918167114,0.414794922
5885.432875,0.358810425,1.137878418,0.579391479
5895.117875,0.180709839,1.466506958,0.834869385
5904.803875,0.033355713,1.693695068,0.983840942
5914.476875,0.155761719,1.663269043,0.742004395
5924.165875,0.337661743,1.446685791,0.301132202
5933.846875,0.416549683,1.418869019,-0.192703247
5943.525875,0.318481445,1.542556763,-0.491958618
5953.206875,0.175872803,1.535736084,-0.261978149
5962.884875,-0.014175415,1.530288696,0.182098389
5972.563875,-0.164138794,1.576904297,0.433959961
5982.243875,-0.106521606,1.665039063,0.4662323
5991.919875,0.067169189,1.692840576,0.243972778
6001.601875,0.17024231,1.520111084,-0.00831604
6011.281875,0.170791626,1.304763794,-0.156326294
6020.941875,0.163619995,1.210494995,-0.222457886
6030.642875,0.159957886,1.238311768,-0.178466797
6040.321875,0.125717163,1.290756226,-0.066864014
6050.000875,0.077529907,1.327056885,0.011016846
6059.677875,0.055221558,1.346359253,-0.016769409
6069.342875,0.142974854,1.254013062,-0.053710938
6079.017875,0.227630615,1.140792847,-0.103378296
6088.703875,0.335083008,1.054901123,-0.1355896
6098.396875,0.366622925,1.023773193,-0.169616699
6108.064875,0.420822144,0.937667847,-0.133804321
6117.760875,0.430847168,0.890014648,-0.140029907
6127.417875,0.412994385,0.864440918,-0.114486694
6137.121875,0.31489563,0.895645142,-0.092803955
6146.800875,0.188598633,0.990371704,-0.087600708
6156.465875,0.100845337,1.065933228,-0.070526123
6166.158875,0.009246826,1.141357422,-0.042205811
6175.840875,-0.100418091,1.173812866,-0.024291992
6185.511875,-0.116958618,1.113830566,-0.040023804
6195.201875,-0.052307129,1.030563354,-0.051498413
6204.882875,0.04536438,0.980117798,-0.052719116
6214.545875,0.152038574,0.944549561,-0.034835815
6224.242875,0.18536377,0.944671631,-0.017959595
6233.925875,0.192749023,0.952087402,0.00177002
6243.597875,0.188369751,0.92805481,0.045532227
6253.286875,0.149032593,0.916595459,0.043884277
6262.965875,0.107894897,0.92565918,0.026504517
6272.646875,0.078033447,0.937728882,0.008880615
6282.306875,0.041305542,0.938201904,0.005584717
6291.980875,0.025619507,0.93788147,0.013214111
6301.672875,0.02192688,0.942703247,0.025604248
6311.365875,0.01663208,0.955795288,0.032913208
6321.020875,0.016601563,0.964035034,0.045059204
6330.728875,0.049682617,0.972229004,0.068511963
6340.409875,0.104187012,0.995376587,0.092758179
6350.069875,0.153182983,1.007949829,0.106765747
6359.770875,0.180084229,1.004425049,0.096313477
6369.450875,0.196060181,0.986541748,0.079376221
6379.114875,0.197128296,0.962142944,0.064926147
6388.810875,0.181716919,0.919540405,0.038803101
6398.491875,0.160324097,0.865982056,0.015762329
6408.165875,0.12361145,0.860473633,0.015213013
6417.853875,0.088821411,0.890411377,0.033462524
6427.527875,0.070663452,0.934356689,0.054977417
6437.212875,0.085998535,0.964035034,0.054122925
6446.891875,0.124786377,0.986877441,0.043548584
6456.549875,0.152145386,1.015335083,0.042526245
6466.252875,0.159164429,1.018783569,0.04598999
6475.934875,0.157501221,0.997192383,0.036331177
6485.592875,0.142425537,0.965362549,0.020584106
6495.294875,0.121612549,0.964355469,0.016204834
6504.951875,0.113418579,0.98298645,0.0259552
6514.655875,0.111099243,1.011978149,0.03616333
6524.329875,0.096038818,1.048431396,0.03817749
6534.017875,0.081817627,1.079910278,0.028594971
6543.678875,0.070922852,1.106307983,-0.001556396
6553.376875,0.066864014,1.122055054,-0.042282104
6563.053875,0.073013306,1.140457153,-0.06930542
6572.729875,0.084411621,1.171875,-0.080047607
6582.400875,0.113693237,1.22013855,-0.086334229
6592.081875,0.143600464,1.340499878,-0.113937378
6601.763875,0.137649536,1.515304565,-0.198242188
6611.446875,0.133132935,1.598876953,-0.24180603
6621.126875,0.201583862,1.517593384,-0.154037476
6630.819875,0.347625732,1.425521851,-0.062026978
6640.505875,0.505218506,1.379394531,0.039001465
6650.183875,0.631011963,1.365402222,0.133422852
6659.866875,0.682357788,1.42401123,0.203964233
6669.546875,0.626983643,1.421234131,0.26171875
6679.219875,0.496871948,1.335830688,0.270584106
6688.909875,0.361450195,1.241744995,0.230728149
6698.590875,0.248184204,1.163742065,0.226928711
6708.258875,0.169281006,1.116073608,0.249572754
6717.953875,0.102096558,1.113922119,0.283905029
6727.634875,0.096496582,1.104537964,0.359893799
6737.315875,0.141937256,1.110702515,0.414031982
6746.995875,0.18862915,1.144638062,0.429458618
6756.677875,0.276397705,1.174468994,0.380355835
6766.359875,0.375900269,1.202972412,0.292572021
6776.040875,0.465911865,1.237731934,0.220092773
6785.712875,0.522918701,1.275756836,0.17741394
6795.322583,0.486938477,1.299957275,0.071731567
6805.006583,0.384078979,1.277053833,0.00642395
6814.687583,0.36227417,1.277664185,0.05355835
6824.369583,0.284759521,1.266601563,0.105529785
6834.044583,0.212875366,1.265670776,0.087783813
6843.720583,0.200241089,1.226104736,0.010406494
6853.412583,0.205352783,1.209442139,-0.05897522
6863.094583,0.191436768,1.263885498,-0.039733887
6872.766583,0.161773682,1.321975708,0.028549194
6882.455583,0.140869141,1.30506897,0.113265991
6892.136583,0.083374023,1.215072632,0.052886963
6901.816583,0.093963623,1.149047852,0.066390991
6911.472583,0.155578613,1.035842896,0.129684448
6921.162583,0.205627441,0.953948975,0.099822998
6930.859583,0.274032593,0.871032715,0.138198853
6940.539583,0.260955811,0.816390991,0.105453491
6950.214583,0.173187256,0.86026001,0.04385376
6959.900583,0.101272583,0.905670166,0.105163574
6969.581583,0.039718628,0.873977661,0.168304443
6979.234583,0.039428711,0.878234863,0.249694824
6988.944583,0.031814575,0.819091797,0.189880371
6998.612583,0.055923462,0.799728394,0.148162842
7008.295583,0.0887146,0.769424438,0.133087158
7017.985583,0.108612061,0.735046387,0.128967285
7027.664583,0.108154297,0.616241455,0.222763062
7037.345583,0.157272339,0.510055542,0.323486328
7047.026583,0.214385986,0.442932129,0.376525879
7056.691583,0.246139526,0.407104492,0.418319702
7066.387583,0.267074585,0.391494751,0.489700317
7076.039583,0.255737305,0.331985474,0.524505615
7085.741583,0.251876831,0.316665649,0.539855957
7095.416583,0.273391724,0.313079834,0.516098022
7105.105583,0.2628479,0.33644104,0.460403442
7114.766583,0.242050171,0.396347046,0.415786743
7124.448583,0.256851196,0.44354248,0.388015747
7134.129583,0.274383545,0.419296265,0.396591187
7143.817583,0.257415771,0.399520874,0.427780151
7153.487583,0.227432251,0.388381958,0.458816528
7163.179583,0.208679199,0.378845215,0.495239258
7172.849583,0.19821167,0.383972168,0.567443848
7182.539583,0.174713135,0.429718018,0.630233765
7192.220583,0.1484375,0.487579346,0.65625
7201.898583,0.154403687,0.536087036,0.651443481
7211.577583,0.174758911,0.551620483,0.643112183
7221.256583,0.177734375,0.566207886,0.653198242
7230.935583,0.179672241,0.595977783,0.676559448
7240.591583,0.177932739,0.631958008,0.696258545
7250.264583,0.176849365,0.656143188,0.710494995
7259.970583,0.173873901,0.650177002,0.672988892
7269.650583,0.184524536,0.615432739,0.57069397
7279.316583,0.262420654,0.563674927,0.490219116
7289.008583,0.356048584,0.535079956,0.544326782
7298.688583,0.406280518,0.608200073,0.794876099
7308.360583,0.364471436,0.890792847,1.12336731
7318.031583,0.218841553,1.307983398,1.211013794
7327.730583,0.178695679,1.516464233,0.995330811
7337.403583,0.273681641,1.532440186,0.730484009
7347.090583,0.276794434,1.513656616,0.505783081
7356.771583,0.229919434,1.35798645,0.371841431
7366.446583,0.242919922,1.113327026,0.471694946
7376.132583,0.267807007,0.871002197,0.530487061
7385.815583,0.287322998,0.70072937,0.379241943
7395.496583,0.319122314,0.606674194,0.240234375
7405.176583,0.342529297,0.589477539,0.189208984
7414.845583,0.343566895,0.619857788,0.205245972
7424.537583,0.325698853,0.682418823,0.209365845
7434.219583,0.293807983,0.749862671,0.201370239
7443.898583,0.265197754,0.795410156,0.221878052
7453.581583,0.248504639,0.834030151,0.225784302
7463.261583,0.242233276,0.886413574,0.21812439
7472.934583,0.222503662,0.941421509,0.197341919
7482.623583,0.178909302,0.976898193,0.139266968
7492.303583,0.170135498,1.013244629,0.107254028
7501.981583,0.174743652,1.093795776,0.0912323
7511.661583,0.200515747,1.189666748,0.137588501
7521.321583,0.226898193,1.232543945,0.194198608
7531.021583,0.237335205,1.231185913,0.231842041
7540.701583,0.219924927,1.201919556,0.263015747
7550.366583,0.184555054,1.145507813,0.295089722
7560.048583,0.129272461,1.04296875,0.28553772
7569.722583,0.06803894,0.959197998,0.249389648
7579.396583,0.050125122,0.910339355,0.230422974
7589.103583,0.069915771,0.906356812,0.234832764
7598.773583,0.116287231,0.931838989,0.245117188
7608.436583,0.16317749,0.964950562,0.241378784
7618.125583,0.180236816,0.985397339,0.209350586
7627.805583,0.191009521,0.983322144,0.184387207
7637.486583,0.197631836,0.963989258,0.171829224
7647.167583,0.201049805,0.919692993,0.176864624
7656.846583,0.206344604,0.866500854,0.188720703
7666.542583,0.22114563,0.815567017,0.194320679
7676.221583,0.245925903,0.791030884,0.202224731
7685.901583,0.273147583,0.798065186,0.19909668
7695.581583,0.29347229,0.816131592,0.175506592
7705.261583,0.30519104,0.836288452,0.151901245
7714.924583,0.327056885,0.86555481,0.136428833
7724.619583,0.352600098,0.901412964,0.121963501
7734.299583,0.380615234,0.935943604,0.117828369
7743.978583,0.404571533,0.955764771,0.136230469
7753.656583,0.393539429,0.93687439,0.158554077
7763.338583,0.367736816,0.919128418,0.175598145
7773.007583,0.334213257,0.907806396,0.193649292
7782.696583,0.300048828,0.925460815,0.197387695
7792.375583,0.25769043,0.954315186,0.174057007
7802.042583,0.209716797,0.969329834,0.126815796
7811.735583,0.186462402,0.97869873,0.068145752
7821.414583,0.180374146,0.985839844,0.011581421
7831.093583,0.206817627,0.987380981,0.002960205
7840.773583,0.258209229,0.986907959,0.054489136
7850.422583,0.294967651,0.972610474,0.130355835
7860.133583,0.306137085,0.959381104,0.226852417
7869.813583,0.299194336,0.957122803,0.312057495
7879.464583,0.247207642,0.949172974,0.308853149
7889.176583,0.180145264,0.947174072,0.22013855
7898.855583,0.145019531,0.970275879,0.119216919
7908.528583,0.116607666,1.012161255,0.053787231
7918.213583,0.103775024,1.012268066,0.014663696
7927.892583,0.111740112,0.97416687,0.008712769
7937.563583,0.165557861,0.928466797,0.072753906
7947.253583,0.233810425,0.872619629,0.165084839
7956.933583,0.275695801,0.817825317,0.220458984
7966.614583,0.259048462,0.788848877,0.233703613
7976.277583,0.185302734,0.807434082,0.20085144
7985.973583,0.105697632,0.857162476,0.177398682
7995.652583,0.034606934,0.954696655,0.271026611
8005.332583,-0.006271362,1.05255127,0.266998291
8015.004583,0.058258057,1.059112549,0.137619019
8024.693583,0.18447876,0.987136841,0.016052246
8034.374583,0.255599976,0.878662109,0.038803101
8044.026583,0.239929199,0.760131836,0.195510864
8053.735583,0.127090454,0.660919189,0.301269531
8063.413583,-0.020965576,0.57460022,0.270401001
8073.079583,-0.053146362,0.488296509,0.274719238
8082.775583,0.006790161,0.460418701,0.378311157
8092.454583,0.076309204,0.54725647,0.515563965
8102.132583,0.116363525,0.682907104,0.544830322
8111.806583,0.146896362,0.770568848,0.46282959
8121.484583,0.19367981,0.837310791,0.434402466
8131.162583,0.290420532,0.923355103,0.558303833
8140.847583,0.389373779,1.029327393,0.679916382
8150.511583,0.450622559,1.086227417,0.646072388
8160.193583,0.514038086,1.11479187,0.537139893
8169.873583,0.616256714,1.199249268,0.42729187
8179.555583,0.691680908,1.290618896,0.516479492
8189.231583,0.762664795,1.246505737,0.722198486
8198.928583,0.793212891,1.069671631,0.927734375
8208.593583,0.756500244,0.95640564,1.02986145
8218.289583,0.729110718,0.848342896,1.022384644
8227.969583,0.630401611,0.817687988,0.944122314
8237.646583,0.404434204,0.863510132,0.853637695
8247.328583,0.175888062,0.856521606,0.798980713
8257.006583,0.022476196,0.796051025,0.760604858
8266.679583,-0.081375122,0.710525513,0.753051758
8276.367583,-0.163375854,0.582641602,0.744903564
8286.048583,-0.214050293,0.417098999,0.699996948
8295.728583,-0.208175659,0.239364624,0.678878784
8305.409583,-0.164001465,0.107971191,0.659332275
8315.090583,-0.082641602,0.086883545,0.629776001
8324.772583,-0.006759644,0.14906311,0.58354187
8334.453583,0.032516479,0.258071899,0.560516357
8344.105583,0.07371521,0.374420166,0.546432495
8353.812583,0.142883301,0.465423584,0.523178101
8363.492583,0.183609009,0.54347229,0.507125854
8373.158583,0.224594116,0.585083008,0.495056152
8382.852583,0.241394043,0.592727661,0.506484985
8392.533583,0.250610352,0.566116333,0.518096924
8402.203583,0.266891479,0.530487061,0.512435913
8411.892583,0.298797607,0.493972778,0.478591919
8421.571583,0.33392334,0.473388672,0.417602539
8431.234583,0.364929199,0.4659729,0.353256226
8440.867583,0.39781189,0.489089966,0.302536011
8450.547583,0.422637939,0.528915405,0.257110596
8460.211583,0.436950684,0.585098267,0.23526001
8469.906583,0.434768677,0.655349731,0.226135254
8479.580583,0.413619995,0.746459961,0.230499268
8489.265583,0.382385254,0.843414307,0.220809937
8498.946583,0.345352173,0.920501709,0.247970581
8508.609583,0.302383423,0.989105225,0.241729736
8518.303583,0.244888306,1.052780151,0.211380005
8527.983583,0.185470581,1.128799438,0.100540161
8537.647583,0.154342651,1.195297241,0.020126343
8547.338583,0.124435425,1.221160889,-0.024887085
8557.018583,0.103729248,1.208831787,-0.033828735
8566.684583,0.094451904,1.142700195,0.00289917
8576.377583,0.12789917,1.096496582,0.067062378
8586.057583,0.171279907,1.124435425,0.172409058
8595.710583,0.203552246,1.170379639,0.212661743
8605.418583,0.230331421,1.192443848,0.229797363
8615.098583,0.212112427,1.182723999,0.252975464
8624.770583,0.172668457,1.108276367,0.237182617
8634.458583,0.126968384,1.000442505,0.176727295
8644.137583,0.097366333,0.886260986,0.022262573
8653.817583,0.132614136,0.839248657,-0.092437744
8663.497583,0.172210693,0.821182251,-0.150360107
8673.160583,0.198196411,0.817001343,-0.189682007
8682.834583,0.249145508,0.844039917,-0.216308594
8692.536583,0.274337769,0.87487793,-0.231048584
8702.214583,0.313949585,0.87902832,-0.170272827
8711.876583,0.352325439,0.822021484,-0.06288147
8721.561583,0.432693481,0.751785278,0.046173096
8731.235583,0.52355957,0.722183228,0.057159424
8740.929583,0.638397217,0.818862915,0.016159058
8750.610583,0.66494751,0.920837402,-0.035629272
8760.269583,0.5418396,1.021362305,-0.023757935
8769.967583,0.273254395,1.223556519,0.114624023
8779.634583,0.001464844,1.43901062,0.470443726
8789.306583,-0.189483643,1.580123901,0.847976685
8799.009583,-0.242950439,1.757614136,0.933578491
8808.683583,-0.145950317,1.884124756,0.810653687
8818.369583,0.039810181,1.836029053,0.564941406
8828.047583,0.179794312,1.772659302,0.26701355
8837.711583,0.141876221,1.724868774,0.092895508
8847.406583,-0.036621094,1.608139038,-0.052459717
8857.086583,-0.130279541,1.485702515,-0.234024048
8866.765583,-0.079879761,1.382751465,-0.313491821
8876.448583,0.000640869,1.304412842,-0.204040527
8886.113583,0.052261353,1.320571899,0.071456909
8895.786583,0.111495972,1.497344971,0.482574463
8905.487583,0.135604858,1.761611938,0.870452881
8915.150583,0.047836304,1.982879639,1.026702881
8924.835583,-0.147171021,1.941665649,0.819366455
8934.523583,-0.233230591,1.591262817,0.294326782
8944.203583,-0.149963379,1.14944458,-0.265609741
8953.883583,0.030136108,0.746887207,-0.613708496
8963.563583,0.182678223,0.420639038,-0.678924561
8973.243583,0.225814819,0.265670776,-0.602035522
8982.922583,0.14050293,0.346237183,-0.51776123
8992.602583,0.006835938,0.618591309,-0.401687622
9002.286583,-0.004486084,0.913513184,-0.175750732
9011.961583,0.106918335,1.168685913,0.090774536
9021.645583,0.197738647,1.359054565,0.285003662
9031.313583,0.288894653,1.449462891,0.331893921
9041.005583,0.32862854,1.384750366,0.232025146
9050.683583,0.31350708,1.20854187,0.079696655
9060.335583,0.268112183,1.012145996,-0.0209198
9070.042583,0.194290161,0.894104004,-0.081695557
9079.719583,0.135894775,0.837005615,-0.128845215
9089.380583,0.044799805,0.840896606,-0.203186035
9099.072583,-0.001831055,0.850006104,-0.247283936
9108.749583,-0.002609253,0.871276855,-0.220123291
9118.427583,0.031967163,0.911239624,-0.13583374
9128.088583,0.06678772,0.950500488,-0.046539307
9137.782583,0.094329834,0.979370117,0.03137207
9147.459583,0.106735229,1.002243042,0.069992065
9157.108583,0.100387573,1.010131836,0.076171875
9166.812583,0.079452515,0.999221802,0.058990479
9176.486583,0.057403564,0.990112305,0.019119263
9186.164583,0.037536621,0.963302612,-0.014816284
9195.835583,0.038360596,0.921524048,-0.039886475
9205.523583,0.054519653,0.928543091,-0.049438477
9215.187583,0.05859375,0.967605591,-0.017227173
9224.855583,0.06312561,1.000152588,0.012496948
9234.544583,0.069976807,1.017059326,0.002075195
9244.224583,0.082611084,1.000244141,-0.024551392
9253.904583,0.09085083,0.964172363,-0.051757813
9263.601583,0.089904785,0.944381714,-0.06111145
9273.280583,0.089584351,0.920059204,-0.046279907
9282.960583,0.085037231,0.925445557,-0.02520752
9292.636583,0.080749512,0.951370239,-0.014984131
9302.320583,0.078536987,0.971786499,-0.022689819
9312.000583,0.092102051,0.996459961,-0.037643433
9321.680583,0.123748779,1.036849976,-0.051483154
9331.357583,0.158081055,1.065353394,-0.058929443
9341.039583,0.177612305,1.068206787,-0.060287476
9350.719583,0.180236816,1.056900024,-0.075592041
9360.385583,0.178771973,1.035186768,-0.08442688
9370.078583,0.175704956,1.014724731,-0.075881958
9379.757583,0.161590576,1.007232666,-0.054214478
9389.428583,0.141265869,1.031616211,-0.044403076
9399.116583,0.137054443,1.073287964,-0.049514771
9408.796583,0.140823364,1.136016846,-0.059829712
9418.470583,0.150939941,1.207519531,-0.066986084
9428.154583,0.169937134,1.299301147,-0.071807861
9437.833583,0.160125732,1.453216553,-0.091140747
9447.513583,0.096069336,1.652908325,-0.156051636
9457.193583,0.061218262,1.70173645,-0.166641235
9466.861583,0.09185791,1.594726563,-0.105651855
9476.553583,0.163253784,1.493362427,-0.036895752
9486.233583,0.226379395,1.414535522,0.061706543
9495.883583,0.283905029,1.363082886,0.154510498
9505.591583,0.317993164,1.337860107,0.22265625
9515.269583,0.33013916,1.303329468,0.252929688
9524.921583,0.32572937,1.26953125,0.268203735
9534.625583,0.304855347,1.239883423,0.277404785
9544.305583,0.254837036,1.196121216,0.287704468
9553.975583,0.186752319,1.134109497,0.300323486
9563.663583,0.13710022,1.083953857,0.316207886
9573.342583,0.085144043,1.056228638,0.32951355
9583.021583,0.067337036,1.057800293,0.329299927
9592.701583,0.076156616,1.079177856,0.298355103
9602.360583,0.087921143,1.1690979,0.244781494
9612.059583,0.144607544,1.231323242,0.189788818
9621.730583,0.205200195,1.278930664,0.118392944
9631.388583,0.285202026,1.338241577,0.03817749
9641.095583,0.318725586,1.357833862,-0.045227051
9650.773583,0.267486572,1.309661865,-0.142715454
9660.434583,0.237319946,1.264266968,-0.223327637
9670.133583,0.280487061,1.238342285,-0.192337036
9679.812583,0.302078247,1.145690918,-0.107711792
9689.464583,0.288360596,1.195831299,-0.039550781
9699.161583,0.27192688,1.198898315,0.103881836
9708.847583,0.246337891,1.207855225,0.209060669
9718.510583,0.272888184,1.263763428,0.194198608
9728.192583,0.184387207,1.334014893,-0.09387207
9737.872583,0.175643921,1.313491821,0.086700439
9747.553583,0.210845947,1.117950439,0.338012695
9757.233583,0.28767395,0.99798584,0.208694458
9766.910583,0.343826294,0.902954102,0.15486145
9776.610583,0.339248657,0.853729248,0.147613525
9786.291583,0.262588501,0.848068237,0.072753906
9795.963583,0.161071777,0.89743042,0.115615845
9805.651583,0.084625244,0.905349731,0.230422974
9815.329583,0.041275024,0.882675171,0.295776367
9824.985583,0.003646851,0.811584473,0.221862793
9834.689583,-0.048553467,0.72328186,0.132476807
9844.369583,-0.061019897,0.663482666,0.167236328
9854.035583,-0.007720947,0.620025635,0.164886475
9863.732583,0.056274414,0.551254272,0.127761841
9873.413583,0.122299194,0.52180481,0.134857178
9883.093583,0.183410645,0.538742065,0.195983887
9892.773583,0.252502441,0.580429077,0.246871948
9902.439583,0.296920776,0.602249146,0.264526367
9912.131583,0.328765869,0.606307983,0.29675293
9921.810583,0.342025757,0.552124023,0.348098755
9931.461583,0.329528809,0.499145508,0.41619873
9941.171583,0.322311401,0.471511841,0.486129761
9950.846583,0.292236328,0.437255859,0.474533081
9960.514583,0.262481689,0.427352905,0.509796143
9970.210583,0.202850342,0.385040283,0.484527588
9979.890583,0.176651001,0.331802368,0.507736206
9989.543583,0.160888672,0.303207397,0.549377441
9999.252583,0.159805298,0.324676514,0.553756714
10008.93258,0.151916504,0.40007019,0.545898438
10018.60358,0.14352417,0.479278564,0.552032471
10028.29258,0.153320313,0.528564453,0.580047607
10037.97358,0.156448364,0.540512085,0.605636597
10047.65358,0.136260986,0.535369873,0.658218384
10057.33458,0.097824097,0.5287323,0.704589844
10066.99058,0.069000244,0.532119751,0.714355469
10076.69458,0.055557251,0.534729004,0.699371338
10086.37558,0.04347229,0.539016724,0.678527832
10096.04358,0.044448853,0.559402466,0.661834717
10105.73458,0.071548462,0.589065552,0.608428955
10115.41658,0.137527466,0.629974365,0.551315308
10125.09558,0.210372925,0.685638428,0.555709839
10134.77658,0.297836304,0.79776001,0.740036011
10144.45758,0.340911865,1.062103271,1.036148071
10154.13858,0.33430481,1.441864014,0.949234009
10163.81758,0.36151123,1.652557373,0.638656616
10173.49658,0.220108032,1.79574585,0.633728027
10183.16758,-0.098983765,1.918502808,0.502288818
10192.85558,-0.228027344,1.75289917,0.322052002
10202.53758,-0.119445801,1.431976318,0.279006958
10212.21758,0.080810547,1.100006104,0.195892334
10221.89758,0.311050415,0.818695068,0.24041748
10231.57258,0.489624023,0.616104126,0.417648315
10241.25658,0.575119019,0.533874512,0.453643799
10250.93558,0.566802979,0.556625366,0.306884766
10260.59458,0.517913818,0.620895386,0.150650024
10270.29158,0.476318359,0.703369141,0.089797974
10279.97258,0.440795898,0.783081055,0.133041382
10289.64758,0.404602051,0.862411499,0.205093384
10299.31658,0.342071533,0.933914185,0.246429443
10308.99758,0.268997192,0.996459961,0.250930786
10318.67258,0.1900177,1.043640137,0.216186523
10328.35658,0.142852783,1.084014893,0.155181885
10338.05258,0.096664429,1.115463257,0.1015625
10347.72458,0.08190918,1.138778687,0.090698242
10357.40758,0.096954346,1.150405884,0.127944946
10367.08958,0.126327515,1.128982544,0.180252075
10376.77158,0.133575439,1.058502197,0.219177246
10386.45058,0.131790161,0.985534668,0.215362549
10396.12158,0.148971558,0.921981812,0.234100342
10405.80758,0.170028687,0.881088257,0.262161255
10415.48758,0.177398682,0.852661133,0.280792236
10425.14458,0.20640564,0.840698242,0.280410767
10434.84558,0.217086792,0.827774048,0.243621826
10444.52358,0.217681885,0.820297241,0.206207275
10454.17258,0.208206177,0.79045105,0.185180664
10463.87658,0.200775146,0.772323608,0.168136597
10473.55258,0.20993042,0.769073486,0.164001465
10483.22158,0.225875854,0.770065308,0.177459717
10492.90858,0.243331909,0.765014648,0.195144653
10502.58758,0.243041992,0.754653931,0.179794312
10512.26758,0.245178223,0.748275757,0.144012451
10521.94658,0.250427246,0.744216919,0.119155884
10531.62558,0.247009277,0.770202637,0.107879639
10541.30558,0.230880737,0.827987671,0.117904663
10550.98458,0.216674805,0.888549805,0.144454956
10560.64258,0.207366943,0.942321777,0.184616089
10570.34158,0.202636719,0.989883423,0.249694824
10580.01958,0.205245972,1.029525757,0.321975708
10589.69458,0.218429565,1.049194336,0.370269775
10599.37558,0.240997314,1.064315796,0.403656006
10609.05358,0.271621704,1.078460693,0.418212891
10618.71758,0.293655396,1.077957153,0.383666992
10628.41058,0.316436768,1.061981201,0.31968689
10638.09058,0.33404541,1.060577393,0.25869751
10647.76158,0.326675415,1.049575806,0.200759888
10657.44758,0.284393311,1.014312744,0.117645264
10667.12558,0.220748901,0.956344604,-0.01335144
10676.80458,0.176086426,0.86050415,-0.09703064
10686.45958,0.151245117,0.77053833,-0.105484009
10696.14058,0.143188477,0.718261719,-0.091018677
10705.84558,0.156188965,0.721252441,-0.06628418
10715.52558,0.185501099,0.800262451,-0.019393921
10725.19258,0.230392456,0.95413208,-0.018325806
10734.88558,0.2056427,1.120727539,0.012496948
10744.56658,0.151519775,1.212036133,-0.048248291
10754.24658,0.10887146,1.156036377,-0.106842041
10763.91958,0.130630493,0.980407715,-0.073120117
10773.60758,0.200317383,0.790527344,0.083480835
10783.27258,0.283447266,0.661056519,0.287811279
10792.95658,0.319900513,0.622436523,0.327438354
10802.63858,0.31489563,0.671951294,0.229980469
10812.31958,0.310073853,0.772232056,0.199111938
10822.00058,0.30519104,0.905670166,0.335418701
10831.68058,0.254882813,1.094680786,0.513183594
10841.37658,0.257446289,1.244140625,0.416702271
10851.05558,0.27696228,1.287857056,0.139678955
10860.72258,0.249557495,1.196548462,-0.00227356
10870.41758,0.198822021,1.040344238,0.104904175
10880.09858,0.175918579,0.917495728,0.370239258
10889.75958,0.182052612,0.863128662,0.508850098
10899.46058,0.149047852,0.739028931,0.450820923
10909.14258,0.1771698,0.704803467,0.474609375
10918.79658,0.270004272,0.814559937,0.563644409
10928.50358,0.373138428,0.927322388,0.648284912
10938.18458,0.500457764,0.973510742,0.77243042
10947.85158,0.568618774,0.998931885,0.922439575
10957.54758,0.607574463,0.967514038,0.997497559
10967.22758,0.632675171,0.856628418,1.101333618
10976.90958,0.548217773,0.717330933,1.195220947
10986.58958,0.39680481,0.648590088,1.130187988
10996.27158,0.235794067,0.68812561,0.992706299
11005.95058,0.096420288,0.697921753,0.858108521
11015.62558,-0.042541504,0.611968994,0.739105225
11025.30358,-0.152069092,0.521072388,0.646560669
11034.99058,-0.211715698,0.375976563,0.556594849
11044.67058,-0.199874878,0.26385498,0.540420532
11054.32358,-0.129211426,0.198410034,0.550521851
11064.03158,-0.040039063,0.164031982,0.544937134
11073.71258,0.031906128,0.151535034,0.56262207
11083.38658,0.08706665,0.1459198,0.582717896
11093.05158,0.16217041,0.179229736,0.578689575
11102.75658,0.188171387,0.236114502,0.539642334
11112.43158,0.191390991,0.292144775,0.495178223
11122.12058,0.182418823,0.323043823,0.452880859
11131.80158,0.177246094,0.339126587,0.410888672
11141.48358,0.181335449,0.351211548,0.391860962
11151.16458,0.197128296,0.355484009,0.380325317
11160.84358,0.229949951,0.360961914,0.385269165
11170.50558,0.259460449,0.37802124,0.399505615
11180.20758,0.283401489,0.427963257,0.409805298
11189.86958,0.305023193,0.480407715,0.414764404
11199.56958,0.317337036,0.533721924,0.404495239
11209.25058,0.328674316,0.60874939,0.361572266
11218.90658,0.322372437,0.701324463,0.282424927
11228.61058,0.306900024,0.823638916,0.183807373
11238.26658,0.281402588,0.959625244,0.092727661
11247.97158,0.233306885,1.060089111,0.062408447
11257.64358,0.192504883,1.16027832,0.022003174
11267.33758,0.176742554,1.285324097,0.002319336
11277.01458,0.176727295,1.402648926,-0.001419067
11286.70258,0.179168701,1.495605469,-0.002075195
11296.37258,0.177963257,1.474365234,0.071594238
11306.06358,0.176544189,1.40536499,0.141494751
11315.73858,0.17338562,1.324661255,0.170059204
11325.40658,0.176315308,1.247039795,0.189346313
11335.09358,0.180999756,1.176315308,0.227294922
11344.77658,0.177749634,1.083374023,0.170974731
11354.46558,0.198379517,1.031799316,0.096939087
11364.13858,0.240264893,1.019317627,0.03553772
11373.81458,0.260787964,0.940414429,-0.031982422
11383.51858,0.273696899,0.87361145,-0.107696533
11393.19958,0.287765503,0.854415894,-0.104675293
11402.88058,0.28855896,0.856658936,-0.105163574
11412.55158,0.284072876,0.872131348,-0.081878662
11422.24058,0.275146484,0.889358521,-0.07774353
11431.92058,0.311843872,0.892562866,-0.044021606
11441.60258,0.371551514,0.849182129,-0.007110596
11451.27958,0.43687439,0.783432007,0.031723022
11460.96158,0.499450684,0.785812378,0.06892395
11470.63858,0.502380371,0.862335205,0.044631958
11480.32058,0.448272705,1.014526367,-0.00881958
11489.99358,0.252685547,1.210327148,0.117172241
11499.67158,0.021972656,1.385238647,0.429077148
11509.35758,-0.135147095,1.518127441,0.643615723
11519.00858,-0.14604187,1.722640991,0.671569824
11528.72158,0.034286499,1.887985229,0.612213135
11538.40158,0.273391724,1.966461182,0.440261841
11548.05558,0.389755249,1.884658813,0.185745239
11557.76058,0.210296631,1.691711426,0.001724243
11567.44158,-0.045944214,1.560256958,-0.080596924
11577.10958,-0.141983032,1.457260132,-0.137512207
11586.80258,-0.093048096,1.386199951,-0.222991943
11596.48458,-0.032974243,1.358978271,-0.244262695
11606.16758,0.044967651,1.394195557,-0.119552612
11615.84758,0.13822937,1.579650879,0.160064697
11625.52758,0.106674194,1.899200439,0.488311768
11635.20858,-0.014053345,2.041473389,0.734115601
11644.88958,-0.139755249,1.822921753,0.706726074
11654.54458,-0.156280518,1.430953979,0.339645386
11664.24958,-0.067306519,1.100769043,-0.093429565
11673.92958,0.046325684,0.799331665,-0.4347229
11683.59758,0.176635742,0.565078735,-0.60697937
11693.28958,0.287353516,0.44644165,-0.63168335
11702.97158,0.336776733,0.428527832,-0.572723389
11712.64258,0.344268799,0.523010254,-0.469970703
11722.33358,0.352661133,0.694534302,-0.298049927
11731.99858,0.350387573,0.928817749,-0.039810181
11741.68758,0.304733276,1.151779175,0.211791992
11751.37458,0.216049194,1.279510498,0.389709473
11761.05258,0.141677856,1.302581787,0.424850464
11770.73458,0.073425293,1.223876953,0.317306519
11780.39958,0.034225464,1.10647583,0.164016724
11789.97396,-0.014648438,1.005264282,0.055358887
11799.64796,-0.056716919,0.926849365,0.003814697
11809.32196,-0.08291626,0.861694336,-0.044937134
11819.02296,-0.092956543,0.840835571,-0.092987061
11828.70996,-0.071395874,0.840377808,-0.096343994
11838.37496,-0.066696167,0.888626099,-0.07019043
11848.07196,-0.039962769,0.939834595,-0.000976563
11857.74196,0.012191772,0.97328186,0.070526123
11867.42196,0.051712036,0.990478516,0.107116699
11877.10996,0.068008423,0.988861084,0.123794556
11886.79796,0.073928833,0.985565186,0.118240356
11896.47796,0.073348999,0.999130249,0.085250854
11906.15296,0.077056885,0.993286133,0.047729492
11915.83996,0.070678711,0.985839844,0.025741577
11925.52096,0.048126221,0.980575562,0.01651001
11935.19996,0.023544312,0.963424683,0.00163269
11944.87996,0.009902954,0.9347229,-0.021224976
11954.56296,0.006164551,0.917907715,-0.057388306
11964.24396,0.026687622,0.897247314,-0.065368652
11973.92396,0.054962158,0.898651123,-0.042495728
11983.57796,0.057510376,0.938247681,-0.003051758
11993.28796,0.052062988,0.981567383,0.032196045
12002.96796,0.047439575,1.007797241,0.035491943
12012.64696,0.05116272,1.027908325,0.023742676
12022.32896,0.062713623,1.052642822,0.009399414
12032.00996,0.065444946,1.059539795,0.016189575
12041.67596,0.048477173,1.041122437,0.031509399
12051.36896,0.020889282,1.035583496,0.036254883
12061.05096,0.010025024,1.051177979,0.031219482
12070.73196,0.027786255,1.104934692,0.028137207
12080.41296,0.068099976,1.173492432,0.035797119
12090.09296,0.104782104,1.239837646,0.048202515
12099.77296,0.132537842,1.30166626,0.058547974
12109.44496,0.163131714,1.376251221,0.047470093
12119.10596,0.173339844,1.495254517,-0.02507019
12128.81196,0.136123657,1.616912842,-0.102340698
12138.49196,0.115524292,1.702056885,-0.110092163
12148.15196,0.157974243,1.737594604,-0.079376221
12157.85396,0.232254028,1.693969727,-0.024185181
12167.53596,0.333755493,1.546981812,0.071685791
12177.21296,0.367172241,1.410903931,0.157546997
12186.88496,0.335083008,1.330444336,0.213806152
12196.57696,0.282623291,1.249755859,0.23638916
12206.24896,0.227172852,1.173095703,0.217285156
12215.93596,0.18572998,1.090072632,0.176803589
12225.61796,0.168457031,1.010314941,0.146179199
12235.29896,0.152084351,0.95489502,0.127471924
12244.97896,0.146011353,0.938674927,0.099349976
12254.65096,0.147644043,0.966186523,0.054473877
12264.33796,0.150802612,1.039855957,0.003585815
12274.01796,0.171844482,1.162796021,-0.01234436
12283.68696,0.230880737,1.263748169,-0.052932739
12293.38196,0.32119751,1.379806519,-0.105026245
12303.05996,0.42414856,1.474029541,-0.143814087
12312.73996,0.516464233,1.511566162,-0.154724121
12322.40896,0.582962036,1.478942871,-0.128509521
12332.09996,0.556381226,1.353424072,-0.113388062
12341.77696,0.488571167,1.152374268,-0.146484375
12351.43396,0.46144104,1.040390015,-0.251205444
12361.13296,0.482803345,0.939208984,-0.341217041
12370.79496,0.473464966,0.839096069,-0.278686523
12380.50296,0.359115601,0.893768311,-0.234115601
12390.15696,0.153091431,0.976776123,-0.111541748
12399.84296,-0.039474487,1.144210815,0.166183472
12409.52496,-0.238708496,1.300567627,0.346298218
12419.21696,-0.23928833,1.249053955,0.482650757
12428.88796,-0.027359009,1.055282593,0.453826904
12438.57296,0.178970337,0.986907959,0.354278564
12448.23796,0.290771484,0.992980957,0.369506836
12457.94296,0.304489136,1.008575439,0.299087524
12467.62496,0.216934204,1.003845215,0.165939331
12477.27796,0.123260498,1.010147095,0.091888428
12486.98496,0.024978638,1.05329895,0.077331543
12496.66496,-0.059494019,1.144165039,0.04850769
12506.33796,-0.061950684,1.133834839,0.120422363
12516.00096,-0.018295288,1.068511963,0.147613525
12525.70796,0.036529541,0.996612549,0.160552979
12535.38896,0.090805054,0.911468506,0.205841064
12545.07096,0.137466431,0.818939209,0.186035156
12554.75196,0.132354736,0.729003906,0.208267212
12564.43196,0.130050659,0.635604858,0.276931763
12574.11096,0.165267944,0.533172607,0.391311646
12583.76596,0.211700439,0.474746704,0.460617065
12593.46796,0.236328125,0.412490845,0.424133301
12603.15196,0.245223999,0.376403809,0.407333374
12612.81996,0.25604248,0.356155396,0.408279419
12622.51296,0.261749268,0.339233398,0.348709106
12632.19396,0.213806152,0.322677612,0.315933228
12641.86896,0.159881592,0.304458618,0.351501465
12651.55396,0.121322632,0.287063599,0.428771973
12661.23496,0.131637573,0.262298584,0.528915405
12670.90196,0.157150269,0.246063232,0.604431152
12680.59696,0.153045654,0.258148193,0.669403076
12690.27796,0.139022827,0.281204224,0.679351807
12699.95696,0.142379761,0.356140137,0.616500854
12709.63696,0.142776489,0.45010376,0.515380859
12719.31196,0.132629395,0.523590088,0.491149902
12728.99896,0.122024536,0.570144653,0.540466309
12738.68096,0.124023438,0.595565796,0.592224121
12748.34796,0.146697998,0.601303101,0.613388062
12758.04196,0.178039551,0.587036133,0.633300781
12767.72196,0.20753479,0.574447632,0.643051147
12777.40096,0.222793579,0.571594238,0.650238037
12787.08296,0.220809937,0.576263428,0.670684814
12796.74896,0.195526123,0.584884644,0.679519653
12806.43196,0.179870605,0.59954834,0.694854736
12816.12296,0.185653687,0.636062622,0.772079468
12825.80096,0.224578857,0.700439453,0.818893433
12835.48296,0.268966675,0.815841675,0.838577271
12845.16196,0.2993927,1.038467407,0.888198853
12854.81896,0.262573242,1.383850098,0.993087769
12864.52296,0.1875,1.769790649,0.835250854
12874.20196,0.173599243,1.99887085,0.529312134
12883.87696,0.17855835,1.942733765,0.229309082
12893.55696,0.207504272,1.667297363,-0.015914917
12903.23896,0.29586792,1.217773438,-0.009063721
12912.89996,0.305526733,0.768218994,0.139862061
12922.57896,0.256973267,0.448043823,0.306777954
12932.26496,0.195480347,0.279006958,0.382904053
12941.93596,0.155715942,0.252746582,0.28326416
12951.62496,0.132156372,0.335678101,0.176193237
12961.32096,0.145706177,0.48135376,0.104171753
12970.99396,0.174362183,0.668441772,0.08631897
12980.68196,0.19619751,0.879074097,0.106262207
12990.36096,0.226379395,1.093826294,0.158905029
13000.02596,0.254440308,1.281539917,0.190994263
13009.72296,0.254974365,1.443786621,0.180450439
13019.40196,0.236816406,1.544021606,0.140090942
13029.08296,0.197235107,1.545578003,0.092666626
13038.76296,0.162307739,1.458572388,0.100738525
13048.42696,0.108596802,1.315002441,0.162124634
13058.12396,0.079833984,1.126144409,0.240341187
13067.80496,0.084106445,0.962692261,0.277511597
13077.47996,0.099685669,0.848693848,0.256790161
13087.16696,0.120819092,0.761581421,0.192398071
13096.84996,0.155090332,0.696014404,0.136154175
13106.50196,0.176239014,0.652191162,0.092987061
13116.20996,0.192687988,0.651290894,0.077575684
13125.87396,0.228088379,0.672622681,0.088623047
13135.56296,0.232208252,0.702850342,0.116500854
13145.25096,0.211807251,0.735977173,0.127868652
13154.90296,0.195587158,0.752182007,0.143371582
13164.61296,0.178710938,0.773498535,0.140853882
13174.29396,0.17199707,0.817123413,0.129943848
13183.95596,0.166702271,0.858901978,0.126998901
13193.65796,0.156295776,0.884979248,0.118270874
13203.33096,0.163955688,0.907867432,0.123703003
13213.01996,0.174758911,0.933944702,0.135910034
13222.69996,0.177078247,0.948150635,0.151306152
13232.38096,0.178024292,0.953933716,0.168487549
13242.03096,0.181625366,0.960144043,0.189254761
13251.73696,0.177886963,0.946151733,0.203720093
13261.42096,0.175201416,0.937301636,0.200119019
13271.09096,0.166503906,0.940231323,0.175460815
13280.78296,0.158401489,0.953781128,0.147689819
13290.46496,0.170257568,0.993103027,0.150939941
13300.13896,0.182601929,1.04536438,0.1612854
13309.82796,0.199630737,1.079818726,0.15737915
13319.50896,0.20640564,1.086853027,0.152740479
13329.18496,0.206054688,1.085525513,0.138259888
13338.86996,0.193115234,1.070098877,0.107681274
13348.53696,0.17539978,1.0337677,0.055404663
13358.22496,0.15852356,0.985397339,-0.015808105
13367.91296,0.164794922,0.930526733,-0.080841064
13377.58996,0.178970337,0.86920166,-0.125610352
13387.26696,0.180618286,0.784927368,-0.160507202
13396.95096,0.171081543,0.702453613,-0.122055054
13406.60996,0.146087646,0.656463623,-0.064590454
13416.30096,0.128967285,0.683654785,0.051345825
13425.98296,0.103424072,0.818908691,0.232513428
13435.65796,0.054214478,1.02885437,0.374923706
13445.34796,0.02381897,1.205123901,0.492675781
13455.03896,0.095748901,1.281005859,0.432022095
13464.72396,0.21572876,1.245361328,0.104980469
13474.40496,0.217819214,1.112121582,-0.116073608
13484.08696,0.162567139,0.95300293,-0.072967529
13493.76696,0.101348877,0.820541382,0.107940674
13503.44896,0.040313721,0.730728149,0.235931396
13513.11896,0.037414551,0.653961182,0.248901367
13522.81096,0.074310303,0.586364746,0.281723022
13532.46696,0.123092651,0.58442688,0.444580078
13542.17096,0.174835205,0.669662476,0.50340271
13551.85496,0.22756958,0.796707153,0.466079712
13561.53496,0.252883911,0.849105835,0.316772461
13571.18896,0.246704102,0.936737061,0.33253479
13580.89496,0.235443115,0.980651855,0.322906494
13590.57496,0.256546021,0.979400635,0.36239624
13600.24696,0.260513306,0.971832275,0.440795898
13609.93396,0.207214355,0.970397949,0.439453125
13619.61596,0.171432495,0.960449219,0.451217651
13629.29596,0.204605103,0.957046509,0.473724365
13638.97496,0.350738525,0.97102356,0.652267456
13648.65496,0.595443726,1.005645752,0.874572754
13658.32896,0.8253479,0.992630005,1.018447876
13668.01596,0.900405884,0.980880737,1.146148682
13677.66896,0.765625,1.001220703,1.237136841
13687.37596,0.606903076,1.041290283,1.247283936
13697.05596,0.46546936,1.055786133,1.201538086
13706.72296,0.336608887,1.068984985,1.166366577
13716.40796,0.196014404,1.113357544,0.93812561
13726.08196,0.072402954,1.001358032,0.697723389
13735.76996,-0.060592651,0.731842041,0.645904541
13745.45696,-0.15927124,0.493438721,0.550857544
13755.13596,-0.226928711,0.373733521,0.503753662
13764.80996,-0.271575928,0.275894165,0.522399902
13774.49896,-0.313674927,0.226745605,0.510131836
13784.17996,-0.328186035,0.250289917,0.503768921
13793.86096,-0.222579956,0.282608032,0.548614502
13803.54296,-0.065246582,0.302032471,0.64491272
13813.22096,0.089599609,0.320922852,0.734985352
13822.90396,0.201004028,0.344299316,0.775939941
13832.58496,0.248001099,0.363174438,0.762237549
13842.24396,0.214584351,0.376342773,0.688232422
13851.94296,0.172546387,0.392562866,0.585678101
13861.59896,0.145401001,0.426849365,0.495330811
13871.27296,0.11088562,0.457077026,0.427963257
13880.97696,0.083633423,0.494338989,0.402038574
13890.64896,0.064666748,0.544891357,0.386077881
13900.33796,0.052978516,0.595428467,0.380233765
13909.99996,0.044021606,0.635421753,0.380905151
13919.68696,0.050537109,0.669570923,0.376800537
13929.36796,0.067398071,0.693313599,0.364547729
13939.04996,0.094299316,0.710754395,0.35786438
13948.72996,0.127441406,0.726928711,0.371917725
13958.40996,0.157577515,0.741287231,0.381210327
13968.10796,0.176345825,0.752822876,0.377883911
13977.78796,0.177581787,0.759887695,0.360900879
13987.46396,0.176803589,0.774307251,0.333587646
13997.14896,0.173278809,0.795425415,0.301605225
14006.80096,0.162353516,0.830505371,0.263641357
14016.50896,0.149932861,0.891494751,0.219299316
14026.18796,0.14503479,0.996734619,0.182815552
14035.84196,0.154006958,1.116790771,0.177719116
14045.54896,0.179290771,1.250045776,0.206161499
14055.22796,0.198730469,1.359771729,0.233383179
14064.88796,0.1978302,1.39604187,0.246414185
14074.58496,0.197174072,1.369903564,0.280014038
14084.26596,0.182296753,1.309539795,0.265731812
14093.94596,0.180038452,1.232971191,0.234939575
14103.62596,0.180984497,1.180648804,0.206741333
14113.30596,0.183883667,1.126968384,0.163909912
14122.98496,0.190933228,1.101043701,0.130004883
14132.66596,0.200149536,1.109603882,0.11730957
14142.33096,0.24079895,1.114898682,0.133453369
14152.02596,0.297912598,1.133010864,0.165283203
14161.70696,0.31552124,1.139358521,0.175613403
14171.38296,0.340698242,1.127029419,0.176025391
14181.06696,0.34552002,1.11239624,0.163360596
14190.74696,0.333358765,1.113830566,0.141311646
14200.41596,0.324005127,1.116333008,0.136962891
14210.10696,0.310058594,1.047485352,0.133346558
14219.78296,0.288574219,0.954299927,0.119735718
14229.46096,0.249710083,0.875,0.086853027
14239.14896,0.216156006,0.775161743,0.061584473
14248.82696,0.19430542,0.691986084,0.027786255
14258.50696,0.193405151,0.630065918,-0.028060913
14268.18396,0.198364258,0.612503052,-0.063293457
14277.85796,0.201278687,0.650939941,-0.073959351
14287.54896,0.177078247,0.711914063,-0.070587158
14297.23096,0.155197144,0.777389526,-0.04788208
14306.91096,0.138580322,0.829376221,-0.0234375
14316.59496,0.126449585,0.86076355,-0.003936768
14326.27396,0.126556396,0.868347168,0.016281128
14335.95396,0.129730225,0.8621521,0.031784058
14345.63396,0.125930786,0.841888428,0.06993103
14355.31296,0.149078369,0.866607666,0.20652771
14364.98296,0.194198608,0.950531006,0.324523926
14374.65996,0.255630493,1.030319214,0.305496216
14384.33396,0.32359314,1.166732788,0.222442627
14394.00596,0.330047607,1.390060425,0.047592163
14403.70596,0.377105713,1.614440918,-0.143112183
14413.36896,0.502639771,1.797119141,-0.246063232
14423.05096,0.40637207,1.89604187,-0.158584595
14432.72996,0.147125244,1.969589233,0.059539795
14442.40896,-0.191833496,1.897018433,0.236175537
14452.08996,-0.403289795,1.692626953,0.273742676
14461.78796,-0.375823975,1.456954956,0.208236694
14471.46196,-0.259613037,1.204711914,0.077758789
14481.06696,-0.162399292,1.00970459,-0.094619751
14490.76096,-0.031936646,0.859329224,-0.197250366
14500.43696,0.123321533,0.763336182,-0.196456909
14510.12496,0.269165039,0.788803101,-0.095092773
14519.80996,0.316925049,0.936019897,0.078521729
14529.48496,0.198532104,1.207794189,0.215637207
14539.15196,0.09753418,1.500671387,0.240982056
14548.83296,0.030853271,1.685302734,0.236358643
14558.50296,0.03364563,1.643814087,0.288040161
14568.20896,0.064285278,1.406417847,0.31539917
14577.88996,0.074417114,1.161499023,0.224380493
14587.56096,0.085845947,0.978256226,0.033309937
14597.24896,0.136917114,0.826644897,-0.15145874
14606.92996,0.186416626,0.731719971,-0.26109314
14616.61196,0.253005981,0.675537109,-0.240371704
14626.29196,0.279846191,0.668655396,-0.162368774
14635.97396,0.239700317,0.743423462,-0.097946167
14645.65496,0.17565918,0.872268677,-0.071853638
14655.33496,0.132995605,0.985946655,-0.045120239
14664.98796,0.128417969,1.027816772,-0.013397217
14674.69296,0.149246216,1.011245728,0.009216309
14684.37696,0.163116455,0.989822388,0.030487061
14694.04096,0.148071289,0.983322144,0.051742554
14703.73696,0.106399536,0.999969482,0.063262939
14713.41496,0.06098938,1.033966064,0.047439575
14723.09196,0.038375854,1.066741943,-0.003036499
14732.77296,0.044784546,1.064865112,-0.0362854
14742.45196,0.040817261,1.040863037,-0.057220459
14752.11796,0.037826538,0.988143921,-0.070037842
14761.81196,0.038406372,0.941696167,-0.064559937
14771.49296,0.063781738,0.926086426,-0.024383545
14781.17396,0.103393555,0.919708252,0.015151978
14790.85296,0.141967773,0.925720215,0.045578003
14800.51696,0.151092529,0.951843262,0.077438354
14810.21296,0.12336731,0.984558105,0.096496582
14819.89296,0.091995239,0.99710083,0.09387207
14829.56896,0.06829834,0.985549927,0.05090332
14839.25496,0.049499512,0.966110229,-0.003753662
14848.93296,0.027557373,0.958847046,-0.027542114
14858.59196,-0.005737305,0.971084595,-0.029708862
14868.29196,-0.038665771,0.987167358,-0.023208618
14877.97296,-0.054122925,0.994689941,-0.013717651
14887.64196,-0.044006348,0.988586426,-0.01385498
14897.33296,-0.021697998,0.983322144,-0.009429932
14907.01496,0.001968384,0.979736328,0.001464844
14916.69496,0.013946533,0.980438232,0.015396118
14926.37096,0.022262573,1.001693726,0.022109985
14936.05496,0.017120361,1.041152954,0.02381897
14945.73396,0.022384644,1.081008911,0.014648438
14955.39296,0.059112549,1.116455078,0.000167847
14965.06896,0.132553101,1.149688721,-0.01663208
14974.74896,0.204711914,1.180221558,-0.03302002
14984.43696,0.296035767,1.198425293,-0.02897644
14994.11996,0.366928101,1.203918457,0.004516602
15003.79796,0.421539307,1.222885132,0.061309814
15013.47796,0.445251465,1.260162354,0.123245239
15023.14896,0.43661499,1.343429565,0.162368774
15032.85496,0.30960083,1.488021851,0.109283447
15042.53596,0.17401123,1.589187622,0.050262451
15052.20596,0.072723389,1.642089844,0.016998291
15061.89496,0.014465332,1.615356445,0.004165649
15071.57596,0.038223267,1.490402222,0.043533325
15081.22896,0.098190308,1.384567261,0.080673218
15090.93596,0.139343262,1.334106445,0.073104858
15100.61796,0.171295166,1.30116272,0.054077148
15110.29796,0.185348511,1.268814087,0.032241821
15119.97696,0.230957031,1.233322144,0.016601563
15129.64496,0.277313232,1.187606812,0.015274048
15139.33696,0.294967651,1.129898071,0.033279419
15149.01896,0.296630859,1.069015503,0.071182251
15158.67196,0.298141479,1.039077759,0.144058228
15168.38096,0.299346924,1.043746948,0.231231689
15178.06096,0.317749023,1.089904785,0.339935303
15187.72396,0.349807739,1.166244507,0.427612305
15197.42096,0.396484375,1.25881958,0.441818237
15207.10096,0.431671143,1.35017395,0.370178223
15216.77396,0.406478882,1.389968872,0.222686768
15226.46096,0.3306427,1.327026367,0.019836426
15236.12396,0.273193359,1.24005127,-0.172424316
15245.82096,0.248062134,1.086288452,-0.344909668
15255.50096,0.192825317,1.064682007,-0.374572754
15265.17696,0.162490845,1.049575806,-0.278121948
15274.85996,0.081634521,1.099899292,-0.214263916
15284.53396,-0.087722778,1.202362061,-0.204589844
15294.19896,-0.279632568,1.258178711,0.221221924
15303.90196,-0.284011841,1.105361938,0.465927124
15313.58496,-0.036987305,1.006698608,0.318511963
15323.25196,0.150192261,1.083175659,0.133300781
15332.92096,0.251434326,1.140670776,0.161697388
15342.62496,0.238174438,1.132125854,0.181411743
15352.29296,0.164718628,1.133224487,0.101577759
15361.98096,0.070724487,1.132293701,0.038787842
15371.65996,0.006195068,1.103088379,0.140533447
15381.34096,-0.003921509,1.013031006,0.180419922
15391.02096,0.059448242,0.930801392,0.274032593
15400.67496,0.13734436,0.855773926,0.214141846
15410.38196,0.177597046,0.807189941,0.126785278
15420.06296,0.175292969,0.765792847,0.056503296
15429.72796,0.162475586,0.692855835,0.051086426
15439.40196,0.138931274,0.603103638,0.096221924
15449.07596,0.110168457,0.54208374,0.246109009
15458.74996,0.139511108,0.4453125,0.38420105
15468.45496,0.171539307,0.355529785,0.439361572
15478.11996,0.195159912,0.279052734,0.470474243
15487.80296,0.221725464,0.220184326,0.508605957
15497.48196,0.221603394,0.194351196,0.513931274
15507.16296,0.223922729,0.193984985,0.505340576
15516.83296,0.187484741,0.218475342,0.52520752
15526.53896,0.155502319,0.275604248,0.532226563
15536.21496,0.105194092,0.325881958,0.511871338
15545.90096,0.081115723,0.348327637,0.526687622
15555.58096,0.064712524,0.330993652,0.574539185
15565.26096,0.058242798,0.354171753,0.623397827
15574.93996,0.034378052,0.373275757,0.59815979
15584.62096,0.032699585,0.404342651,0.594543457
15594.27896,0.053878784,0.439041138,0.644454956
15603.98196,0.073883057,0.487579346,0.669281006
15613.66196,0.089752197,0.54133606,0.691452026
15623.33196,0.082901001,0.573547363,0.706802368
15633.02296,0.068496704,0.573532104,0.681655884
15642.70096,0.087234497,0.562561035,0.607833862
15652.37296,0.138748169,0.535125732,0.491851807
15662.06196,0.220779419,0.50642395,0.361083984
15671.74096,0.372741699,0.499542236,0.429885864
15681.41396,0.519256592,0.589752197,0.904327393
15691.10096,0.56703186,0.977233887,1.431304932
15700.78096,0.405532837,1.563018799,1.292724609
15710.45796,0.278045654,1.751571655,0.831817627
15720.13896,0.002639771,1.927642822,0.857803345
15729.81796,-0.342773438,2.00680542,0.535873413
15739.49296,-0.287857056,1.738677979,0.227966309
15749.17796,-0.063461304,1.344772339,0.189331055
15758.82896,0.043426514,0.927215576,0.12651062
15768.53696,0.156524658,0.585144043,0.151626587
15778.21696,0.262191772,0.421569824,0.307067871
15787.88296,0.292953491,0.403457642,0.381332397
15797.57596,0.236236572,0.493118286,0.305618286
15807.25496,0.192611694,0.614578247,0.199249268
15816.91996,0.200256348,0.734161377,0.140640259
15826.61596,0.249450684,0.847747803,0.13494873
15836.29396,0.293991089,0.948959351,0.163238525
15845.96796,0.321899414,1.038116455,0.237014771
15855.65396,0.329116821,1.129226685,0.294250488
15865.30496,0.326385498,1.210021973,0.301498413
15875.01496,0.301300049,1.25604248,0.272186279
15884.69496,0.27571106,1.238479614,0.252044678
15894.35796,0.254730225,1.164215088,0.217544556
15904.05696,0.240081787,1.071548462,0.177642822
15913.73696,0.228973389,0.975753784,0.16758728
15923.41196,0.208587646,0.892608643,0.163955688
15933.07996,0.182815552,0.825332642,0.169235229
15942.75896,0.165344238,0.783096313,0.187744141
15952.42496,0.130889893,0.766204834,0.212997437
15962.11896,0.07901001,0.782287598,0.226852417
15971.80396,0.039367676,0.821990967,0.218856812
15981.47496,0.015426636,0.876617432,0.221420288
15991.17396,-0.012573242,0.933792114,0.212005615
16000.85396,-0.026351929,0.976654053,0.196899414
16010.53096,-0.030838013,0.981292725,0.179763794
16020.21196,-0.025588989,0.959793091,0.164459229
16029.89296,-0.009735107,0.93560791,0.154953003
16039.57296,0.015975952,0.903137207,0.161224365
16049.25196,0.049194336,0.871673584,0.169326782
16058.90896,0.084243774,0.848526001,0.176864624
16068.60596,0.124038696,0.845336914,0.186523438
16078.29196,0.161621094,0.852355957,0.205474854
16087.96196,0.179656982,0.879806519,0.234466553
16097.65096,0.199707031,0.917572021,0.26234436
16107.33296,0.220581055,0.960144043,0.282211304
16117.00396,0.217987061,0.997589111,0.283187866
16126.69196,0.190490723,1.01373291,0.255493164
16136.37196,0.16973877,1.016036987,0.219940186
16146.03696,0.154647827,1.01385498,0.216049194
16155.73196,0.161270142,0.999023438,0.255981445
16165.41096,0.180664063,0.981552124,0.295349121
16175.09196,0.207992554,0.975540161,0.305770874
16184.74496,0.22605896,0.99697876,0.253875732
16194.41896,0.22253418,1.03692627,0.179824829
16204.13096,0.196426392,1.068740845,0.171691895
16213.81096,0.175430298,1.066452026,0.170822144
16223.48996,0.172470093,1.02154541,0.13079834
16233.17096,0.167114258,0.942092896,0.023620605
16242.85096,0.157608032,0.868713379,-0.09046936
16252.51196,0.143737793,0.808273315,-0.041900635
16262.21196,0.090866089,0.751464844,0.126358032
16271.89096,0.034103394,0.71774292,0.192749023
16281.56096,0.018173218,0.716461182,0.158477783
16291.24996,0.017089844,0.737640381,0.049316406
16300.93196,0.027862549,0.745803833,-0.002166748
16310.60396,0.074874878,0.753341675,0.066650391
16320.26096,0.141555786,0.767532349,0.206436157
16329.96996,0.175613403,0.781219482,0.298126221
16339.64896,0.174057007,0.823135376,0.342041016
16349.31296,0.172744751,0.847503662,0.363265991
16358.98796,0.172561646,0.856750488,0.417282104
16368.68496,0.139419556,0.88130188,0.426315308
16378.36196,0.11630249,0.906234741,0.399765015
16388.03996,0.182998657,0.920700073,0.444091797
16397.71196,0.300460815,0.971115112,0.606567383
16407.38596,0.339889526,1.033462524,0.685165405
16417.07996,0.314788818,1.081192017,0.591156006
16426.74596,0.307861328,1.081497192,0.455780029
16436.44196,0.362319946,1.041213989,0.489822388
16446.11296,0.453872681,1.036346436,0.596878052
16455.80096,0.513656616,1.01802063,0.623535156
16465.47996,0.528991699,0.973342896,0.68359375
16475.15396,0.501968384,0.925582886,0.795501709
16484.83996,0.454452515,0.885406494,0.902755737
16494.51996,0.442703247,0.855819702,0.991744995
16504.19896,0.469085693,0.826263428,1.032089233
16513.87696,0.478546143,0.840042114,1.029296875
16523.53896,0.446563721,0.932250977,0.969345093
16533.23796,0.358016968,1.001419067,0.865341187
16542.91696,0.250244141,0.928863525,0.781524658
16552.59196,0.188568115,0.719436646,0.745758057
16562.21296,0.160140991,0.521469116,0.613098145
16571.89096,0.044891357,0.388244629,0.621505737
16581.56696,-0.043807983,0.257766724,0.670196533
16591.25096,-0.08203125,0.189956665,0.68586731
16600.91496,-0.103851318,0.22845459,0.675842285
16610.58896,-0.095565796,0.295349121,0.677215576
16620.29196,-0.061569214,0.364334106,0.718261719
16629.97296,-0.007614136,0.436645508,0.753540039
16639.62696,0.057128906,0.470245361,0.74369812
16649.33296,0.128875732,0.458099365,0.703460693
16659.01396,0.175338745,0.430633545,0.640609741
16668.68596,0.179672241,0.414505005,0.578369141
16678.37296,0.175537109,0.424850464,0.517471313
16688.05296,0.154022217,0.455932617,0.461868286
16697.73196,0.11668396,0.489883423,0.422286987
16707.41196,0.078018188,0.532836914,0.413879395
16717.06496,0.063415527,0.583953857,0.413467407
16726.76996,0.078720093,0.643051147,0.394897461
16736.45296,0.104125977,0.694702148,0.379455566
16746.11596,0.135437012,0.731124878,0.370071411
16755.81196,0.154678345,0.76512146,0.36831665
16765.49096,0.164215088,0.789138794,0.365753174
16775.13996,0.170379639,0.80809021,0.36076355
16784.78908,0.174041748,0.824584961,0.362487793
16794.46808,0.175689697,0.840103149,0.366897583
16804.13308,0.172714233,0.839263916,0.367370605
16813.82808,0.170257568,0.835510254,0.361877441
16823.48108,0.174453735,0.84197998,0.343215942
16833.17708,0.17906189,0.867874146,0.307037354
16842.86308,0.211669922,0.907928467,0.286209106
16852.54108,0.232925415,0.925476074,0.265579224
16862.22208,0.228500366,0.957778931,0.209686279
16871.90308,0.201461792,1.015991211,0.138259888
16881.55708,0.180282593,1.064025879,0.067733765
16891.26208,0.169296265,1.112731934,0.003143311
16900.94508,0.143005371,1.135528564,-0.029006958
16910.60208,0.127960205,1.16229248,-0.008468628
16920.28308,0.12677002,1.178955078,0.043670654
16929.95808,0.160293579,1.18711853,0.152252197
16939.66108,0.163619995,1.163238525,0.219970703
16949.34908,0.152877808,1.117721558,0.247116089
16959.01008,0.155838013,1.087646484,0.259552002
16968.70408,0.153839111,1.061294556,0.269317627
16978.38508,0.159622192,1.028167725,0.253662109
16988.05208,0.150360107,0.995941162,0.195999146
16997.73108,0.1015625,0.962295532,0.129959106
17007.41008,0.076309204,0.950775146,0.074005127
17017.09108,0.064056396,0.936706543,0.019332886
17026.78808,0.054748535,0.929260254,-0.010604858
17036.46708,0.030502319,0.918518066,-0.042434692
17046.14708,0.005386353,0.943115234,-0.090713501
17055.82308,-0.003997803,0.983810425,-0.131271362
17065.50808,0.007980347,0.978668213,-0.131210327
17075.18108,0.019073486,0.93006897,-0.082504272
17084.87008,0.051651001,0.880203247,0.001815796
17094.55008,0.118148804,0.859771729,0.106002808
17104.20408,0.20022583,0.879577637,0.201156616
17113.91108,0.275878906,0.942108154,0.334884644
17123.59108,0.2215271,1.050201416,0.393508911
17133.25708,0.173751831,1.036331177,0.326934814
17142.95208,0.209777832,0.946044922,0.240615845
17152.63008,0.29486084,0.865768433,0.097183228
17162.31108,0.441955566,0.877120972,-0.056991577
17171.99008,0.699356079,1.02394104,-0.17767334
17181.67308,0.868743896,1.168426514,-0.155883789
17191.35108,0.902191162,1.256408691,-0.027114868
17201.03008,0.695770264,1.408813477,0.185150146
17210.68808,0.443389893,1.629440308,0.402328491
17220.39008,0.306091309,1.856582642,0.564178467
17230.06708,0.137832642,1.999206543,0.589080811
17239.72708,-0.115066528,1.891281128,0.424041748
17249.42608,-0.308319092,1.695297241,0.213256836
17259.09808,-0.453140259,1.545425415,0.031219482
17268.77008,-0.522598267,1.420639038,-0.063568115
17278.46108,-0.470458984,1.302444458,-0.118896484
17288.14008,-0.289932251,1.183883667,-0.173706055
17297.81608,-0.102737427,1.047454834,-0.112930298
17307.50108,0.017288208,1.193649292,0.041900635
17317.18108,-0.006408691,1.496231079,0.230743408
17326.86008,-0.09942627,1.681030273,0.272766113
17336.53708,-0.12677002,1.566513062,0.128387451
17346.21708,-0.043960571,1.247207642,-0.136764526
17355.89708,0.16027832,0.963027954,-0.381286621
17365.57708,0.409500122,0.785842896,-0.508758545
17375.23908,0.545654297,0.693115234,-0.539749146
17384.93608,0.570800781,0.623840332,-0.491012573
17394.61608,0.507141113,0.605773926,-0.414474487
17404.29208,0.406204224,0.669387817,-0.321258545
17413.96708,0.326278687,0.803421021,-0.177764893
17423.63308,0.270751953,0.925170898,-0.033325195
17433.31508,0.215560913,0.995376587,0.066329956
17442.98708,0.166351318,1.030960083,0.098678589
17452.68708,0.108856201,1.041290283,0.09211731
17462.36708,0.058380127,1.042236328,0.069869995
17472.36708,0.02204895,1.048919678,0.055084229
17481.97708,-0.025939941,1.055114746,0.045303345
17491.65408,-0.068405151,1.0365448,0.020385742
17501.32208,-0.093109131,1.00630188,-0.028152466
17511.00608,-0.080535889,0.978607178,-0.074737549
17520.68008,-0.027740479,0.944335938,-0.080276489
17530.36308,0.035263062,0.935638428,-0.076126099
17540.02408,0.087844849,0.938323975,-0.059844971
17549.71208,0.127166748,0.946792603,-0.023300171
17559.38608,0.144836426,0.961608887,0.028930664
17569.05108,0.132369995,0.981338501,0.080886841
17578.74208,0.09992981,0.990356445,0.10484314
17588.43208,0.071380615,0.986938477,0.100357056
17598.10408,0.062088013,0.973907471,0.068008423
17607.78708,0.068389893,0.968856812,0.029586792
17617.45108,0.076690674,0.97315979,-0.022079468
17627.13208,0.090744019,0.970245361,-0.072174072
17636.80108,0.106887817,0.973342896,-0.093109131
17646.50908,0.129425049,0.999694824,-0.087005615
17656.18908,0.14390564,1.039077759,-0.062713623
17665.86208,0.144363403,1.062454224,-0.015289307
17675.53608,0.138534546,1.063262939,0.028274536
17685.23008,0.124862671,1.056350708,0.049514771
17694.91108,0.097198486,1.047195435,0.065109253
17704.59108,0.062591553,1.054290771,0.065628052
17714.27108,0.042861938,1.0728302,0.041229248
17723.95008,0.029815674,1.102249146,-0.002914429
17733.63108,0.029754639,1.144775391,-0.036727905
17743.28508,0.036972046,1.198562622,-0.054336548
17752.99008,0.04864502,1.26184082,-0.061813354
17762.66808,0.067901611,1.341018677,-0.067901611
17772.33708,0.07711792,1.445571899,-0.07723999
17782.02508,0.082641602,1.546844482,-0.07572937
17791.70408,0.092300415,1.618850708,-0.072784424
17801.37408,0.108840942,1.626647949,-0.055252075
17811.06308,0.151885986,1.582061768,-0.018463135
17820.74108,0.206619263,1.498962402,0.006378174
17830.40808,0.286880493,1.40713501,0.054229736
17840.10208,0.3306427,1.317947388,0.076828003
17849.78308,0.337417603,1.24105835,0.08152771
17859.46208,0.31729126,1.169250488,0.067733765
17869.14308,0.296798706,1.09979248,0.060577393
17878.81408,0.278915405,1.050643921,0.07951355
17888.50308,0.263931274,1.020324707,0.133666992
17898.18308,0.258483887,1.019561768,0.214675903
17907.83608,0.25541687,1.053573608,0.315917969
17917.52708,0.259368896,1.111038208,0.428344727
17927.22608,0.263259888,1.177047729,0.533920288
17936.88908,0.262908936,1.240219116,0.60534668
17946.58708,0.250442505,1.266860962,0.563552856
17956.26708,0.271652222,1.284042358,0.366622925
17965.93608,0.299819946,1.230514526,0.050537109
17975.62608,0.293838501,1.126525879,-0.317718506
17985.30608,0.210891724,1.095367432,-0.577880859
17994.98508,0.131515503,1.095748901,-0.659988403
18004.63908,0.066955566,1.097167969,-0.643798828
18014.34608,-0.035049438,1.154052734,-0.520095825
18024.02708,-0.126434326,1.223327637,-0.191055298
18033.70808,-0.239257813,1.154190063,0.240966797
18043.36508,-0.232177734,1.036346436,0.498733521
18053.06908,-0.100357056,0.963043213,0.522583008
18062.75008,0.067398071,0.929611206,0.35798645
18072.42208,0.211090088,0.939224243,0.308227539
18082.11108,0.260757446,0.946380615,0.346694946
18091.76508,0.225418091,1.008911133,0.310424805
18101.44608,0.178573608,1.08581543,0.198394775
18111.14608,0.171112061,1.144180298,0.182098389
18120.81808,0.1769104,1.147827148,0.147476196
18130.50608,0.197601318,1.099685669,0.093414307
18140.18208,0.218521118,1.054458618,0.091430664
18149.86208,0.207077026,0.989654541,0.131378174
18159.54308,0.182144165,0.944854736,0.159790039
18169.22508,0.171386719,0.936325073,0.258132935
18178.89308,0.125823975,0.838012695,0.325485229
18188.60308,0.094238281,0.753662109,0.431411743
18198.28408,0.121261597,0.664382935,0.49458313
18207.94608,0.178329468,0.58354187,0.450210571
18217.64708,0.236495972,0.499420166,0.430587769
18227.32608,0.268066406,0.446212769,0.445922852
18236.99808,0.287307739,0.399978638,0.484664917
18246.68708,0.29776001,0.372024536,0.529556274
18256.36708,0.314987183,0.367599487,0.565887451
18266.03508,0.327590942,0.357513428,0.58807373
18275.73008,0.348815918,0.368774414,0.583267212
18285.41008,0.347991943,0.385223389,0.576126099
18295.08508,0.307022095,0.401672363,0.609390259
18304.77308,0.225250244,0.4190979,0.656509399
18314.45308,0.166320801,0.427230835,0.655410767
18324.13308,0.105758667,0.401412964,0.615692139
18333.80608,0.033569336,0.368850708,0.574111938
18343.49308,-0.016281128,0.327972412,0.571426392
18353.17208,-0.056854248,0.322891235,0.585220337
18362.85208,-0.05291748,0.352310181,0.597702026
18372.52708,-0.015106201,0.384384155,0.64465332
18382.21308,0.024673462,0.409317017,0.666870117
18391.89408,0.072479248,0.458908081,0.651153564
18401.54908,0.104202271,0.49671936,0.684783936
18411.25508,0.115188599,0.553710938,0.740386963
18420.93508,0.141479492,0.624206543,0.797332764
18430.60408,0.184143066,0.699691772,0.77015686
18440.29408,0.331192017,0.773330688,0.695999146
18449.97408,0.530212402,0.849197388,0.682159424
18459.65508,0.620559692,0.945358276,0.702484131
18469.33508,0.492660522,1.115432739,0.738067627
18479.01508,0.253921509,1.295410156,0.776947021
18488.67708,0.085372925,1.392486572,0.825714111
18498.37608,0.001602173,1.390853882,0.76953125
18508.05508,0.054412842,1.284042358,0.528518677
18517.73808,0.209518433,1.151672363,0.23059082
18527.41808,0.322128296,0.967895508,0.069732666
18537.07908,0.389923096,0.748458862,0.080841064
18546.71508,0.431594849,0.59375,0.24395752
18556.39608,0.428588867,0.530151367,0.407455444
18566.05408,0.340148926,0.545425415,0.403839111
18575.75808,0.230865479,0.59967041,0.314041138
18585.43008,0.16003418,0.664703369,0.195556641
18595.10108,0.115493774,0.734588623,0.085998535
18604.80008,0.096206665,0.814056396,0.029327393
18614.48008,0.102111816,0.915802002,0.020980835
18624.15108,0.114318848,1.030685425,0.100357056
18633.84108,0.12487793,1.157714844,0.225769043
18643.52108,0.124252319,1.265213013,0.316192627
18653.19408,0.143157959,1.321121216,0.358901978
18662.85508,0.170455933,1.33114624,0.34185791
18672.54008,0.190353394,1.296569824,0.278030396
18682.21508,0.205886841,1.239028931,0.215896606
18691.92208,0.200286865,1.156066895,0.171829224
18701.58308,0.180541992,1.053024292,0.165969849
18711.27708,0.171432495,0.931228638,0.175369263
18720.96108,0.163864136,0.825531006,0.189224243
18730.64108,0.157699585,0.76914978,0.194869995
18740.30608,0.154632568,0.755737305,0.188430786
18749.98508,0.15435791,0.773696899,0.183486938
18759.65708,0.141235352,0.813659668,0.174804688
18769.34608,0.137588501,0.849029541,0.1693573
18779.04208,0.104293823,0.872436523,0.170028687
18788.70908,0.07043457,0.894973755,0.186203003
18798.40108,0.049728394,0.920852661,0.212295532
18808.08208,0.038894653,0.944503784,0.246887207
18817.75008,0.042251587,0.962768555,0.291275024
18827.44408,0.063980103,0.974472046,0.321151733
18837.12408,0.094741821,0.979324341,0.325500488
18846.80408,0.135452271,0.986358643,0.298583984
18856.48408,0.169509888,0.984619141,0.265701294
18866.16308,0.185684204,0.96421814,0.230926514
18875.84208,0.217071533,0.946502686,0.224365234
18885.52108,0.232269287,0.934371948,0.2162323
18895.18508,0.206100464,0.912918091,0.205429077
18904.88008,0.175109863,0.889984131,0.212982178
18914.55908,0.148925781,0.882659912,0.252639771
18924.23808,0.104370117,0.893814087,0.289352417
18933.92008,0.052246094,0.921691895,0.294937134
18943.59808,0.008605957,0.983291626,0.313323975
18953.27008,-0.025009155,1.040649414,0.326171875
18962.96008,-0.045349121,1.066680908,0.276153564
18972.64208,-0.016448975,1.039978027,0.139602661
18982.31408,0.057769775,0.985137939,0.048309326
18991.98708,0.134994507,0.920089722,0.000854492
19001.68208,0.153091431,0.859909058,0.009628296
19011.36208,0.105987549,0.823013306,0.101654053
19021.04008,0.035568237,0.811676025,0.23526001
19030.71408,-0.033966064,0.829208374,0.245239258
19040.40008,-0.067367554,0.847229004,0.184631348
19050.08008,-0.050674438,0.859588623,0.125473022
19059.73608,0.008483887,0.857467651,0.106307983
19069.44208,0.080627441,0.825317383,0.128601074
19079.12108,0.171447754,0.793212891,0.233474731
19088.77408,0.254562378,0.809249878,0.35105896
19098.48108,0.355743408,0.845687866,0.323059082
19108.16308,0.485855103,0.909942627,0.305770874
19117.83608,0.551467896,0.978393555,0.313934326
19127.52408,0.483016968,1.05657959,0.268539429
19137.19008,0.331115723,1.072891235,0.279174805
19146.88408,0.173065186,1.023040771,0.29699707
19156.56508,0.103790283,0.926300049,0.316757202
19166.24508,0.168502808,0.801467896,0.375335693
19175.92408,0.303436279,0.726577759,0.510101318
19185.60308,0.411529541,0.700332642,0.56942749
19195.26008,0.468734741,0.696105957,0.705108643
19204.96208,0.532897949,0.721160889,0.905136108
19214.64208,0.618972778,0.722213745,1.075500488
19224.31708,0.671737671,0.691955566,1.193603516
19233.98008,0.673248291,0.724533081,1.28163147
19243.67608,0.560882568,0.824966431,1.490814209
19253.34308,0.416320801,0.939071655,1.591842651
19263.02208,0.397155762,1.002746582,1.234832764
19272.70208,0.345443726,0.893768311,1.013214111
19282.38408,0.186096191,0.719848633,0.783187866
19292.06308,0.015487671,0.647460938,0.584030151
19301.74308,-0.169128418,0.52923584,0.423416138
19311.44008,-0.297943115,0.422302246,0.336746216
19321.11708,-0.374786377,0.348098755,0.311065674
19330.79408,-0.426483154,0.240325928,0.360702515
19340.48308,-0.303588867,0.183288574,0.511444092
19350.16208,-0.14024353,0.177337646,0.676742554
19359.81508,-0.025604248,0.24609375,0.769241333
19369.52208,0.099807739,0.372146606,0.792007446
19379.20308,0.193130493,0.462631226,0.750671387
19388.86808,0.260650635,0.516326904,0.635299683
19398.54208,0.294113159,0.574676514,0.521560669
19408.24108,0.29057312,0.595809937,0.443832397
19417.91108,0.26763916,0.595153809,0.408584595
19427.60008,0.241729736,0.582046509,0.390441895
19437.27908,0.223968506,0.557510376,0.387298584
19446.95108,0.215927124,0.540481567,0.393692017
19456.63808,0.216506958,0.535217285,0.399841309
19466.31608,0.21321106,0.541122437,0.412704468
19475.99408,0.209686279,0.561599731,0.429122925
19485.67408,0.205535889,0.595001221,0.441360474
19495.35508,0.192062378,0.639144897,0.433837891
19505.03508,0.177490234,0.695037842,0.405838013
19514.71608,0.166412354,0.74079895,0.365936279
19524.36608,0.14630127,0.795562744,0.304733276
19534.07508,0.125793457,0.84173584,0.257400513
19543.75508,0.115158081,0.898757935,0.225021362
19553.41908,0.11618042,0.96383667,0.188568115
19563.11508,0.140350342,1.038497925,0.173797607
19572.79308,0.171859741,1.123138428,0.16619873
19582.46308,0.190841675,1.173629761,0.164825439
19592.15008,0.218902588,1.178207397,0.175430298
19601.81808,0.246917725,1.153869629,0.171676636
19611.50908,0.276504517,1.128555298,0.191497803
19621.19008,0.27684021,1.099899292,0.211868286
19630.87008,0.253677368,1.067840576,0.193222046
19640.55008,0.231750488,1.065216064,0.169067383
19650.22508,0.212631226,1.091323853,0.133346558
19659.89508,0.185546875,1.14125061,0.11529541
19669.59108,0.166320801,1.184280396,0.115859985
19679.27008,0.154388428,1.182174683,0.098266602
19688.94808,0.119125366,1.129165649,0.063644409
19698.60608,0.107833862,1.059616089,0.009078979
19708.30608,0.097930908,0.974761963,0.003952026
19717.97008,0.11907959,0.911682129,0.062393188
19727.64008,0.117767334,0.854232788,0.058105469
19737.32708,0.143127441,0.80128479,0.053497314
19747.02508,0.174667358,0.724731445,0.052856445
19756.69708,0.191436768,0.670150757,0.053665161
19766.36708,0.22492981,0.637771606,0.012008667
19776.04808,0.265838623,0.657974243,-0.063461304
19785.72908,0.338485718,0.766464233,-0.112609863
19795.41108,0.426971436,0.888275146,-0.081100464
19805.09708,0.32800293,1.042419434,0.097732544
19814.78908,0.166519165,1.136993408,0.329650879
19824.44608,0.1275177,1.220230103,0.535964966
19834.14708,0.22215271,1.33694458,0.72064209
19843.82708,0.459091187,1.521072388,0.597366333
19853.49808,0.70135498,1.725067139,0.399902344
19863.18708,0.807327271,1.862686157,0.41847229
19872.86608,0.637710571,1.810211182,0.656219482
19882.53008,0.361984253,1.631988525,0.807022095
19892.22608,0.154342651,1.500595093,0.586090088
19901.90408,0.055236816,1.402481079,0.175216675
19911.57208,-0.015945435,1.228820801,-0.219482422
19921.26608,-0.051467896,1.036254883,-0.436645508
19930.93908,-0.063751221,1.049163818,-0.396942139
19940.62508,-0.120193481,1.526596069,0.051513672
19950.30508,-0.221328735,2.084487915,0.736755371
19959.97408,-0.467376709,2.272857666,1.168045044
19969.66408,-0.695724487,1.98789978,0.78692627
19979.34308,-0.590591431,1.546859741,0.147445679
19988.99608,-0.342453003,1.183135986,-0.25491333
19998.70208,-0.135528564,0.867858887,-0.480941772
20008.37508,0.045425415,0.64956665,-0.613433838
20018.04908,0.19859314,0.591918945,-0.628952026
20027.74308,0.31022644,0.640045166,-0.502532959
20037.42208,0.372512817,0.756713867,-0.307144165
20047.09408,0.291671753,1.066207886,-0.11857605
20056.78408,0.316192627,1.18409729,0.221343994
20066.46408,0.197647095,1.328613281,0.437744141
20076.14508,0.145858765,1.293228149,0.405227661
20085.82608,0.101333618,1.165267944,0.21206665
20095.50508,0.071182251,1.025848389,0.009338379
20105.18508,0.051757813,0.918411255,-0.099411011
20114.86408,0.036087036,0.846252441,-0.095443726
20124.54408,-0.002334595,0.822647095,-0.054748535
20134.21708,-0.071472168,0.860977173,-0.024597168
20143.90408,-0.121887207,0.90687561,-0.004547119
20153.58408,-0.133300781,0.972061157,0.010055542
20163.26508,-0.107696533,1.028121948,0.050949097
20172.94708,-0.087219238,1.061950684,0.094284058
20182.60108,-0.064743042,1.062652588,0.125350952
20192.30708,-0.028076172,1.039108276,0.122467041
20201.98908,0.017929077,1.006256104,0.095077515
20211.64208,0.061233521,0.967758179,0.061035156
20221.35008,0.085571289,0.944396973,0.044845581
20231.00108,0.089248657,0.934234619,0.044891357
20240.71108,0.086578369,0.947387695,0.040985107
20250.37908,0.09236145,0.965103149,0.007583618
20260.06708,0.128952026,0.966888428,-0.029678345
20269.73908,0.15385437,0.964691162,-0.033782959
20279.42608,0.149505615,0.966308594,-0.0234375
20289.10708,0.123504639,0.963287354,-0.017242432
20298.77108,0.091003418,0.952026367,-0.014526367
20308.45308,0.055603027,0.950485229,-0.007003784
20318.14308,0.03515625,0.953018188,0.011886597
20327.81108,0.028320313,0.957565308,0.018737793
20337.47708,0.029418945,0.972610474,0.018203735
20347.17508,0.038391113,0.997009277,0.011779785
20356.86408,0.050613403,1.027359009,0.007263184
20366.54408,0.06829834,1.049118042,0.001220703
20376.21608,0.078582764,1.06578064,-0.01461792
20385.90208,0.086105347,1.070571899,-0.032318115
20395.58208,0.095016479,1.069091797,-0.052871704
20405.26208,0.106643677,1.070419312,-0.067245483
20414.93008,0.113616943,1.079498291,-0.072875977
20424.62608,0.115158081,1.097015381,-0.066940308
20434.30608,0.110992432,1.119384766,-0.058685303
20443.98508,0.11769104,1.152114868,-0.047180176
20453.65708,0.131149292,1.203033447,-0.030960083
20463.34008,0.154953003,1.268676758,-0.006271362
20473.02408,0.177093506,1.381195068,0.022689819
20482.67708,0.157562256,1.583450317,0.029708862
20492.38208,0.065505981,1.780303955,0.033538818
20502.06108,0.026245117,1.76953125,0.072998047
20511.73208,0.047409058,1.616012573,0.090270996
20521.41908,0.102813721,1.456604004,0.093475342
20531.09808,0.166687012,1.330047607,0.116271973
20540.75408,0.195297241,1.227661133,0.138381958
20550.45608,0.210586548,1.138504028,0.146560669
20560.13608,0.207885742,1.063842773,0.149551392
20569.81708,0.191177368,1.011322021,0.142730713
20579.49708,0.177108765,0.966201782,0.147354126
20589.17708,0.176589966,0.924041748,0.178619385
20598.85708,0.177352905,0.907089233,0.224716187
20608.53608,0.19128418,0.929199219,0.276733398
20618.20808,0.224487305,0.982269287,0.321640015
20627.89508,0.278091431,1.064666748,0.33543396
20637.57508,0.318466187,1.162017822,0.32472229
20647.22708,0.337249756,1.276473999,0.289001465
20656.93308,0.33581543,1.356002808,0.223388672
20666.59108,0.322174072,1.400222778,0.128372192
20676.28508,0.305953979,1.402191162,0.042037964
20685.97208,0.288330078,1.320266724,-0.110275269
20695.65308,0.288864136,1.177246094,-0.22543335
20705.33308,0.30305481,1.046234131,-0.309036255
20715.01208,0.288528442,0.965637207,-0.338241577
20724.68408,0.226638794,1.005126953,-0.236282349
20734.35808,0.175491333,1.015655518,-0.07951355
20744.05208,0.102798462,1.019989014,0.118026733
20753.72008,-0.033203125,1.108505249,0.306869507
20763.40708,-0.154342651,1.184875488,0.461593628
20773.07808,-0.183120728,1.24029541,0.532485962
20782.76008,-0.064956665,1.208648682,0.481735229
20792.44608,0.144760132,1.129760742,0.305938721
20802.11008,0.231750488,1.061264038,0.214981079
20811.78708,0.250534058,1.077545166,0.181182861
20821.48508,0.16998291,1.066864014,0.001739502
20831.14808,0.138687134,1.045669556,0.076644897
20840.83608,0.121994019,1.034988403,0.178817749
20850.52308,0.108856201,1.001861572,0.155303955
20860.20108,0.111297607,0.932495117,0.211807251
20869.88008,0.152236938,0.906677246,0.251464844
20879.56008,0.1771698,0.892868042,0.247772217
20889.23408,0.175445557,0.886154175,0.225952148
20898.91908,0.147201538,0.86050415,0.244827271
20908.59808,0.105804443,0.813919067,0.316207886
20918.25708,0.09854126,0.772094727,0.364074707
20927.95508,0.120758057,0.730697632,0.377929688
20937.63508,0.160842896,0.631408691,0.380661011
20947.29608,0.179260254,0.583892822,0.373931885
20956.99608,0.201400757,0.553024292,0.370193481
20966.67508,0.220199585,0.528518677,0.408432007
20976.33908,0.230316162,0.466079712,0.434051514
20986.03408,0.215560913,0.352478027,0.393035889
20995.71408,0.183181763,0.292694092,0.386886597
21005.39508,0.163711548,0.275024414,0.462554932
21015.07408,0.150283813,0.261703491,0.541824341
21024.73208,0.164794922,0.258209229,0.578063965
21034.43408,0.177139282,0.267883301,0.603927612
21044.11408,0.183670044,0.299057007,0.582000732
21053.78508,0.190368652,0.346939087,0.542709351
21063.47308,0.165176392,0.41355896,0.539382935
21073.14908,0.115447998,0.46307373,0.526123047
21082.80508,0.078811646,0.49281311,0.569198608
21092.51308,0.094558716,0.48588562,0.575180054
21102.19308,0.152633667,0.444458008,0.560409546
21111.84708,0.180786133,0.396713257,0.579772949
21121.55308,0.192810059,0.363037109,0.607162476
21131.23308,0.221603394,0.357894897,0.629074097
21140.90608,0.265731812,0.371765137,0.6146698
21150.56808,0.269866943,0.405853271,0.624801636
21160.24208,0.250976563,0.465560913,0.653991699
21169.95308,0.223495483,0.517150879,0.662582397
21179.63408,0.207214355,0.552124023,0.692993164
21189.31408,0.27583313,0.582260132,0.817489624
21198.99008,0.376602173,0.661941528,1.230407715
21208.67008,0.419998169,0.992370605,1.900268555
21218.33608,0.304031372,1.622039795,1.977249146
21228.03608,0.008804321,1.91065979,1.051528931
21237.69908,-0.138305664,1.543670654,0.67829895
21247.38508,-0.271682739,1.307571411,0.566238403
21257.06308,-0.262161255,1.046844482,0.348297119
21266.73908,0.096817017,0.593200684,0.373809814
21276.41708,0.523330688,0.219223022,0.53288269
21286.10008,0.751220703,0.137405396,0.566482544
21295.78008,0.628814697,0.342666626,0.699813843
21305.45208,0.312835693,0.658798218,0.606109619
21315.15708,0.234710693,0.855758667,0.428894043
21324.83708,0.305648804,0.973114014,0.33001709
21334.51708,0.37677002,1.067382813,0.268280029
21344.19708,0.413391113,1.142486572,0.31199646
21353.86508,0.396118164,1.212799072,0.400741577
21363.55708,0.363983154,1.225784302,0.434371948
21373.23808,0.346801758,1.162582397,0.421920776
21382.88808,0.362075806,1.054138184,0.402893066
21392.59808,0.397415161,0.936569214,0.405792236
21402.27908,0.402755737,0.82119751,0.390014648
21411.93908,0.385650635,0.741378784,0.318908691
21421.63808,0.360244751,0.709381104,0.223693848
21431.31708,0.330337524,0.716125488,0.151428223
21440.99108,0.280410767,0.742080688,0.127792358
21450.68108,0.219558716,0.785247803,0.130874634
21460.36108,0.174072266,0.851821899,0.130630493
21470.04008,0.133972168,0.935058594,0.143386841
21479.71408,0.104324341,1.021881104,0.160415649
21489.40308,0.076141357,1.10887146,0.167892456
21499.08308,0.050491333,1.191070557,0.182830811
21508.76308,0.022872925,1.235473633,0.20300293
21518.41608,0.007980347,1.213546753,0.234207153
21528.12308,0.002441406,1.133453369,0.248168945
21537.80308,0.000320435,1.044631958,0.237472534
21547.46808,-0.005310059,0.966201782,0.210891724
21557.16508,-0.010284424,0.903747559,0.182601929
21566.84708,0.008087158,0.86529541,0.164489746
21576.50108,0.031738281,0.830825806,0.152633667
21586.20908,0.043121338,0.804122925,0.146224976
21595.89108,0.046920776,0.788970947,0.137329102
21605.56308,0.070724487,0.793685913,0.126327515
21615.25308,0.102233887,0.804107666,0.119110107
21624.93508,0.122817993,0.821044922,0.1197052
21634.61508,0.144836426,0.849822998,0.116119385
21644.29708,0.159240723,0.875396729,0.104507446
21653.97408,0.170135498,0.897079468,0.077163696
21663.65708,0.178024292,0.928497314,0.060806274
21673.33708,0.200027466,0.96647644,0.062850952
21683.00608,0.226028442,1.009002686,0.076843262
21692.69908,0.241577148,1.034042358,0.07774353
21702.38108,0.265533447,1.049346924,0.084686279
21712.04908,0.292373657,1.05619812,0.102005005
21721.74308,0.311462402,1.05770874,0.127975464
21731.42408,0.309158325,1.033187866,0.148849487
21741.10208,0.296508789,0.99887085,0.158996582
21750.76208,0.272888184,0.956115723,0.146530151
21760.45908,0.235870361,0.928207397,0.107803345
21770.13208,0.200317383,0.921951294,0.0677948
21779.81208,0.178070068,0.934799194,0.023651123
21789.49408,0.171279907,0.94442749,-0.036621094
21799.07283,0.166320801,0.949401855,-0.089523315
21808.76183,0.166427612,0.942871094,-0.121948242
21818.44183,0.171401978,0.939590454,-0.120010376
21828.13483,0.176177979,0.949188232,-0.091690063
21837.81583,0.187057495,0.975967407,-0.063919067
21847.47583,0.22026062,1.019332886,-0.018859863
21857.18083,0.250366211,1.050140381,0.034179688
21866.86383,0.266113281,1.046188354,0.083007813
21876.52883,0.279067993,1.023849487,0.124664307
21886.20283,0.281646729,0.98651123,0.149856567
21895.90683,0.265426636,0.95161438,0.153717041
21905.57883,0.247360229,0.939086914,0.126174927
21915.24083,0.231292725,0.946228027,0.075897217
21924.95183,0.224777222,0.963134766,0.025421143
21934.63183,0.220703125,0.97795105,-0.01953125
21944.31383,0.210510254,0.981826782,-0.058776855
21953.99383,0.200927734,0.975906372,-0.084945679
21963.67583,0.194671631,0.965179443,-0.114013672
21973.35783,0.200286865,0.956710815,-0.138458252
21983.03483,0.20098877,0.94229126,-0.157546997
21992.72283,0.201522827,0.934173584,-0.1771698
22002.40583,0.202041626,0.93927002,-0.190032959
22012.08783,0.201858521,0.949874878,-0.200500488
22021.76883,0.19909668,0.959762573,-0.202575684
22031.44983,0.198394775,0.961608887,-0.206924438
22041.12783,0.196212769,0.950744629,-0.210006714
22050.81183,0.195404053,0.948883057,-0.207321167
22060.49483,0.204360962,0.967788696,-0.211578369
22070.16683,0.229537964,1.013961792,-0.213272095
22079.85583,0.272018433,1.062637329,-0.202514648
22089.51083,0.316833496,1.115188599,-0.171295166
22099.21883,0.358612061,1.150009155,-0.134796143
22108.90083,0.388244629,1.146270752,-0.095779419
22118.58183,0.409851074,1.112487793,-0.062057495
22128.26483,0.412460327,1.066329956,-0.021652222
22137.93983,0.386047363,1.008605957,0.014755249
22147.62683,0.346160889,0.958312988,0.051071167
22157.30683,0.312347412,0.919631958,0.091827393
22166.98683,0.26473999,0.890396118,0.111816406
22176.63783,0.209869385,0.886413574,0.099304199
22186.34883,0.178359985,0.891830444,0.070098877
22196.02983,0.174072266,0.913528442,0.020339966
22205.70183,0.171615601,0.937591553,-0.039520264
22215.36583,0.16960144,0.943252563,-0.0831604
22225.07183,0.166091919,0.949172974,-0.123443604
22234.74583,0.162612915,0.960769653,-0.157104492
22244.41783,0.164627075,0.977966309,-0.18560791
22254.11583,0.166091919,0.990859985,-0.203659058
22263.79683,0.167190552,0.998016357,-0.21585083
22273.46483,0.170959473,0.998916626,-0.203979492
22283.15783,0.174926758,0.988876343,-0.171859741
22292.83383,0.176712036,0.97706604,-0.127471924
22302.50683,0.1847229,0.974349976,-0.08656311
22312.19783,0.200134277,0.982345581,-0.066009521
22321.87183,0.215103149,0.998306274,-0.042770386
22331.55283,0.237258911,1.018600464,-0.02645874
22341.24983,0.261978149,1.036804199,-0.016342163
22350.87083,0.286010742,1.050201416,-0.005645752
22360.54383,0.296951294,1.052368164,0.000991821
22370.21483,0.293777466,1.037734985,0.001495361
22379.90883,0.268386841,1.005767822,-0.001571655
22389.57883,0.245941162,0.976623535,-0.020782471
22399.24883,0.230178833,0.955322266,-0.049453735
22408.93783,0.214675903,0.950210571,-0.076660156
22418.61883,0.205154419,0.967468262,-0.100784302
22428.30583,0.192367554,0.982208252,-0.126602173
22437.97883,0.181854248,0.985427856,-0.150772095
22447.67683,0.17678833,0.980545044,-0.172821045
22457.34983,0.176696777,0.973739624,-0.187789917
22467.02683,0.178497314,0.962356567,-0.19468689
22476.71783,0.185165405,0.947479248,-0.193908691
22486.39983,0.199874878,0.942810059,-0.181671143
22496.07983,0.212692261,0.940414429,-0.154693604
22505.75383,0.219467163,0.944885254,-0.12437439
22515.44083,0.226867676,0.95866394,-0.096359253
22525.12183,0.235366821,0.976470947,-0.075439453
22534.77683,0.248855591,0.997070313,-0.057113647
22544.48183,0.254318237,1,-0.027511597
22554.16583,0.247879028,0.998535156,-0.002532959
22563.82883,0.24307251,0.971557617,0.0128479
22573.52883,0.220108032,0.961242676,0.015213013
22583.20783,0.205368042,0.961730957,0.006942749
22592.87983,0.214935303,0.958587646,-0.006744385
22602.56783,0.22454834,0.983322144,-0.028366089
22612.24983,0.21522522,1.019088745,-0.048797607
22621.93083,0.19694519,1.041152954,-0.065689087
22631.61283,0.189285278,1.05078125,-0.07208252
22641.29483,0.182632446,1.044509888,-0.079147339
22650.97683,0.178771973,1.031158447,-0.093994141
22660.65783,0.179016113,1.019973755,-0.122146606
22670.33583,0.179748535,1.013595581,-0.15864563
22680.01983,0.19519043,1.009140015,-0.190551758
22689.70183,0.214248657,1.00302124,-0.213546753
22699.37983,0.241699219,0.992584229,-0.225662231
22709.06683,0.269775391,0.980804443,-0.230484009
22718.74783,0.291702271,0.973861694,-0.229614258
22728.40283,0.307785034,0.964950562,-0.223114014
22738.10983,0.319854736,0.95602417,-0.209243774
22747.79083,0.32371521,0.944793701,-0.190048218
22757.46583,0.322769165,0.938415527,-0.164611816
22767.15483,0.310302734,0.934692383,-0.137817383
22776.83483,0.289718628,0.929840088,-0.115356445
22786.51583,0.272659302,0.925827026,-0.098648071
22796.18983,0.255401611,0.924301147,-0.090988159
22805.86383,0.242523193,0.928009033,-0.088409424
22815.56083,0.236999512,0.942962646,-0.089889526
22825.24283,0.234313965,0.955871582,-0.095031738
22834.91683,0.237823486,0.967788696,-0.099380493
22844.60283,0.236923218,0.976531982,-0.108032227
22854.28583,0.232040405,0.978973389,-0.109481812
22863.93883,0.225692749,0.978179932,-0.106643677
22873.64383,0.223358154,0.978149414,-0.102401733
22883.32583,0.22177124,0.977020264,-0.096817017
22892.98883,0.218170166,0.977416992,-0.090423584
22902.68783,0.217895508,0.981872559,-0.085906982
22912.35583,0.218276978,0.991378784,-0.082702637
22922.04683,0.217453003,0.996185303,-0.080490112
22931.72083,0.222747803,0.995010376,-0.079193115
22941.40383,0.227798462,0.991439819,-0.07850647
22951.10283,0.239242554,0.985870361,-0.08203125
22960.78383,0.254882813,0.985687256,-0.08984375
22970.46583,0.267852783,0.984329224,-0.092498779
22980.14783,0.274475098,0.975128174,-0.094329834
22989.82883,0.283355713,0.96913147,-0.096008301
22999.49783,0.285171509,0.961334229,-0.095504761
23009.19383,0.288162231,0.957244873,-0.098297119
23018.87683,0.280685425,0.948806763,-0.102264404
23028.55083,0.265838623,0.942504883,-0.099075317
23038.23983,0.247802734,0.944137573,-0.097686768
23047.92383,0.231185913,0.94619751,-0.099990845
23057.58783,0.21572876,0.949584961,-0.103637695
23067.28483,0.207885742,0.954238892,-0.107940674
23076.96583,0.206817627,0.960388184,-0.107345581
23086.64783,0.213150024,0.97328186,-0.101898193
23096.32883,0.224304199,0.984680176,-0.100860596
23106.00983,0.232177734,0.987518311,-0.092987061
23115.69083,0.240036011,0.987503052,-0.087646484
23125.36483,0.244125366,0.987075806,-0.081283569
23135.02683,0.246353149,0.982635498,-0.077423096
23144.73283,0.245605469,0.984466553,-0.076446533
23154.41483,0.243240356,0.984298706,-0.075576782
23164.07483,0.237457275,0.970779419,-0.074584961
23173.77683,0.219192505,0.953521729,-0.072372437
23183.45883,0.242416382,0.97442627,-0.057037354
23193.11383,0.231323242,0.997329712,-0.071136475
23202.80683,0.20803833,1.080001831,-0.09085083
23212.50783,0.185958862,1.049057007,0.000411987
23222.18083,0.184753418,1.083953857,0.137466431
23231.87083,0.226242065,1.11706543,0.075790405
23241.55083,0.195739746,0.989257813,-0.024765015
23251.23383,0.158584595,0.783309937,-0.212036133
23260.91483,0.146514893,0.736602783,-0.314498901
23270.59583,0.161849976,0.821548462,-0.358718872
23280.27683,0.179656982,0.924407959,-0.374359131
23289.95883,0.216018677,0.997451782,-0.349319458
23299.63783,0.25239563,1.040725708,-0.280456543
23309.31983,0.271743774,1.050231934,-0.204284668
23319.00183,0.289749146,1.04675293,-0.128875732
23328.66083,0.305114746,1.031585693,-0.078659058
23338.36683,0.315093994,1.015823364,-0.042999268
23348.04683,0.325088501,0.994186401,0.003112793
23357.72983,0.33303833,0.973648071,0.045181274
23367.38883,0.337509155,0.953903198,0.050445557
23377.09083,0.329223633,0.930557251,0.008392334
23386.76583,0.317672729,0.918426514,-0.063964844
23396.43983,0.318374634,0.935638428,-0.116134644
23406.11383,0.319793701,0.950668335,-0.144622803
23415.79483,0.314208984,0.959884644,-0.149597168
23425.48883,0.30015564,0.961593628,-0.133270264
23435.16683,0.284500122,0.965057373,-0.113098145
23444.83783,0.260314941,0.97114563,-0.096221924
23454.51983,0.232330322,0.973907471,-0.093536377
23464.21783,0.208908081,0.971221924,-0.100997925
23473.88183,0.206665039,0.968795776,-0.119812012
23483.56283,0.219528198,0.969406128,-0.143341064
23493.24183,0.240463257,0.961593628,-0.159011841
23502.93883,0.272369385,0.961105347,-0.162841797
23512.62083,0.30065918,0.958343506,-0.152862549
23522.29183,0.31539917,0.953567505,-0.135467529
23531.98383,0.324447632,0.949249268,-0.116973877
23541.66483,0.319000244,0.95022583,-0.100311279
23551.33683,0.292800903,0.962356567,-0.086853027
23561.02483,0.255462646,0.974212646,-0.080368042
23570.70583,0.243011475,0.970169067,-0.075698853
23580.38683,0.237747192,0.955001831,-0.071289063
23590.06783,0.232879639,0.936080933,-0.073577881
23599.74783,0.217636108,0.947860718,-0.08946228
23609.42283,0.221038818,0.956115723,-0.113220215
23619.10983,0.245040894,0.943908691,-0.132751465
23628.78283,0.255065918,0.922286987,-0.161346436
23638.45683,0.272186279,1.001708984,-0.175445557
23648.15083,0.260559082,0.975982666,-0.184539795
23657.80483,0.294052124,0.989990234,-0.170852661
23667.51283,0.311706543,1.011306763,-0.169708252
23677.19383,0.297821045,0.994628906,-0.150985718
23686.85883,0.292922974,0.937133789,-0.114105225
23696.55383,0.297546387,0.969955444,-0.111495972
23706.23383,0.273269653,0.972183228,-0.109619141
23715.91583,0.291778564,0.965927124,-0.109619141
23725.59583,0.304367065,0.978271484,-0.107406616
23735.27683,0.295074463,0.987258911,-0.118728638
23744.95683,0.287872314,0.963592529,-0.113128662
23754.63683,0.270599365,0.980163574,-0.117721558
23764.29983,0.261642456,0.979248047,-0.120162964
23773.99983,0.262115479,0.959213257,-0.118881226
23783.68083,0.268783569,0.910949707,-0.103118896
23793.35283,0.261703491,0.824859619,-0.097854614
23803.04083,0.284179688,0.809646606,-0.094345093
23812.69983,0.334014893,1.036376953,-0.092651367
23822.39283,0.307281494,1.096466064,-0.108276367
23832.08283,0.289642334,1.144805908,-0.123519897
23841.76283,0.224685669,1.064865112,-0.124755859
23851.43483,0.187591553,1.044281006,-0.126846313
23861.12183,0.184906006,1.020706177,-0.112258911
23870.80183,0.178314209,0.944442749,-0.081924438
23880.48183,0.164428711,0.859039307,-0.067092896
23890.16183,0.170761108,0.87840271,-0.050918579
23899.82783,0.177505493,0.937362671,-0.055175781
23909.50183,0.176391602,0.920578003,-0.061950684
23919.17283,0.174453735,0.892990112,-0.071136475
23928.85583,0.176055908,0.902450562,-0.07875061
23938.55483,0.187103271,0.921051025,-0.083374023
23948.22283,0.20539856,0.974395752,-0.092697144
23957.90283,0.231430054,1.053939819,-0.102355957
23967.58383,0.257049561,1.113677979,-0.112609863
23977.26583,0.272491455,1.135101318,-0.120697021
23986.95283,0.261047363,1.051605225,-0.11517334
23996.64383,0.262786865,1.006011963,-0.09677124
24006.32483,0.266189575,0.979370117,-0.077453613
24015.97883,0.249893188,0.948257446,-0.067474365
24025.68683,0.253540039,0.981155396,-0.053894043
24035.36883,0.250900269,0.994262695,-0.045471191
24045.04983,0.27255249,1.048614502,-0.053909302
24054.73083,0.304870605,1.05166626,-0.064254761
24064.41083,0.181350708,0.809036255,-0.066680908
24074.09283,0.213088989,0.911712646,-0.060516357
24083.77483,0.206954956,0.959579468,-0.056930542
24093.44183,0.221725464,0.983810425,-0.08013916
24103.13283,0.252944946,1.013061523,-0.102096558
24112.81083,0.290542603,1.051635742,-0.115982056
24122.48583,0.320205688,1.06451416,-0.13381958
24132.16983,0.356552124,1.056350708,-0.156433105
24141.84783,0.383117676,1.031005859,-0.179550171
24151.51783,0.374465942,0.969055176,-0.195297241
24161.20483,0.342758179,0.906860352,-0.208023071
24170.88283,0.285858154,0.840164185,-0.200195313
24180.56183,0.24319458,0.830032349,-0.180877686
24190.23883,0.228744507,0.878051758,-0.160568237
