time(ms),accelerometerAccelerationX,accelerometerAccelerationY,accelerometerAccelerationZ
0,0.245056152,-0.546768188,-0.809997559
9.683,0.2394104,-0.542373657,-0.798843384
19.34,0.241149902,-0.527313232,-0.792205811
29.047,0.238418579,-0.518936157,-0.784683228
38.728,0.254516602,-0.504074097,-0.785919189
48.397,0.265930176,-0.486907959,-0.795578003
58.092,0.263397217,-0.477111816,-0.782363892
67.745,0.260726929,-0.476074219,-0.789489746
77.45,0.238342285,-0.488357544,-0.809890747
87.136,0.224136353,-0.49168396,-0.81741333
96.819,0.200485229,-0.526107788,-0.822555542
106.472,0.227981567,-0.509094238,-0.807998657
116.177,0.235992432,-0.473175049,-0.775650024
125.862,0.224578857,-0.499542236,-0.793045044
135.529,0.267868042,-0.470230103,-0.774475098
145.22,0.269851685,-0.451644897,-0.749557495
154.888,0.260925293,-0.431152344,-0.755691528
164.586,0.244750977,-0.444763184,-0.752792358
174.253,0.271026611,-0.436050415,-0.748458862
183.951,0.274368286,-0.437103271,-0.757400513
193.615,0.280654907,-0.460098267,-0.769454956
203.299,0.292648315,-0.452987671,-0.778945923
212.98,0.311065674,-0.443710327,-0.847045898
222.663,0.336532593,-0.419799805,-0.829193115
232.346,0.336166382,-0.426559448,-0.80708313
242.031,0.327728271,-0.450286865,-0.855300903
251.726,0.328826904,-0.451766968,-0.877075195
261.406,0.333831787,-0.440185547,-0.862609863
271.084,0.335769653,-0.441070557,-0.844055176
280.769,0.334106445,-0.441223145,-0.880249023
290.452,0.268890381,-0.411529541,-0.83732605
300.121,0.254989624,-0.355041504,-0.882293701
309.817,0.184326172,-0.346954346,-0.948898315
319.499,0.071563721,-0.350296021,-0.97845459
329.182,0.038330078,-0.351455688,-1.009933472
338.866,0.071853638,-0.371841431,-1.036071777
348.548,0.127059937,-0.383972168,-1.058822632
358.231,0.173995972,-0.37538147,-1.055847168
367.915,0.194076538,-0.331497192,-1.068008423
377.59,0.171539307,-0.247070313,-1.056655884
387.28,0.091201782,-0.135803223,-1.060272217
396.939,0.034698486,-0.086578369,-1.075744629
406.643,0.076461792,-0.1224823,-1.042205811
416.329,0.139526367,-0.088684082,-1.075912476
426.012,0.132156372,-0.073120117,-1.116516113
435.684,-0.013687134,0.067520142,-1.07774353
445.377,0.044647217,0.280914307,-1.079833984
455.059,0.19909668,0.194763184,-1.019607544
464.735,0.29750061,0.232376099,-0.950653076
474.423,0.320770264,0.451217651,-0.883590698
484.107,0.409591675,0.561752319,-0.798751831
493.789,0.566513062,0.573745728,-0.659790039
503.473,0.732788086,0.669708252,-0.626312256
513.155,0.715438843,0.766906738,-0.740875244
522.832,0.766677856,0.796340942,-0.665969849
532.519,0.828704834,0.835006714,-0.572540283
542.202,0.893859863,0.838409424,-0.549468994
551.885,0.929595947,0.780822754,-0.541763306
561.567,0.913192749,0.639434814,-0.553543091
571.222,0.916488647,0.542678833,-0.577056885
580.931,0.943222046,0.513916016,-0.540924072
590.613,1.019760132,0.477111816,-0.524551392
600.296,1.117523193,0.423370361,-0.54989624
609.978,1.166549683,0.298233032,-0.669998169
619.662,1.159957886,0.144729614,-0.700668335
629.343,1.128967285,0.007415771,-0.800003052
639.025,1.14503479,-0.202728271,-0.881622314
648.709,1.194213867,-0.30380249,-0.903930664
658.391,1.261016846,-0.317062378,-0.919204712
668.073,1.349014282,-0.323242188,-0.981567383
677.731,1.388717651,-0.425445557,-1.076690674
687.439,1.349456787,-0.470565796,-1.080596924
697.122,1.271606445,-0.519607544,-1.101776123
706.784,1.179489136,-0.519088745,-1.123306274
716.486,1.070953369,-0.465713501,-1.098892212
726.162,0.949951172,-0.375274658,-1.078521729
735.85,0.835083008,-0.320587158,-1.095672607
745.534,0.741821289,-0.291473389,-1.091522217
755.215,0.721496582,-0.227233887,-1.033401489
764.889,0.779312134,-0.102905273,-0.987060547
774.581,0.783401489,0.023880005,-0.850143433
784.263,0.733886719,0.397537231,-0.690826416
793.938,0.682785034,0.545837402,-0.627044678
803.628,0.653915405,0.481643677,-0.638092041
813.29,0.55329895,0.513458252,-0.477462769
822.993,0.494888306,0.598693848,-0.351364136
832.671,0.520004272,0.594726563,-0.195663452
842.337,0.577545166,0.643081665,-0.153411865
852.023,0.674026489,0.461044312,-0.043731689
861.706,0.781890869,0.517272949,0.076126099
871.395,0.811264038,0.719177246,0.228088379
881.072,0.817138672,0.841674805,0.257614136
890.754,0.80581665,0.715957642,0.278564453
900.444,0.806716919,0.567810059,0.147888184
910.135,0.796035767,0.493896484,0.030517578
919.819,0.842880249,0.455596924,-0.056442261
929.501,0.913131714,0.434661865,-0.030532837
939.105,1.00881958,0.516571045,-0.058135986
948.802,0.991256714,0.585494995,-0.042709351
958.46,1.072784424,0.703277588,-0.080215454
968.152,1.11756897,0.803375244,-0.116668701
977.843,1.069915771,0.746429443,-0.173614502
987.515,0.975540161,0.687667847,-0.33757019
997.206,0.976547241,0.457839966,-0.519592285
1006.89,1.047668457,0.31036377,-0.48210144
1016.591,0.984848022,0.446716309,-0.362823486
1026.275,0.993011475,0.478378296,-0.301422119
1035.96,0.983078003,0.46232605,-0.306121826
1045.645,0.95098877,0.472366333,-0.285446167
1055.309,0.985717773,0.513259888,-0.242645264
1064.982,0.940368652,0.672058105,-0.17074585
1074.694,0.919509888,0.680725098,-0.195877075
1084.376,0.944152832,0.694885254,-0.123855591
1094.035,0.898010254,0.744903564,-0.093704224
1103.74,0.820922852,0.766418457,-0.098556519
1113.424,0.683639526,0.722335815,-0.122833252
1123.096,0.552841187,0.656677246,-0.147979736
1132.762,0.474700928,0.613693237,-0.158508301
1142.472,0.44644165,0.59463501,-0.133773804
1152.154,0.484451294,0.62828064,-0.096832275
1161.839,0.558685303,0.686523438,-0.03855896
1171.522,0.612411499,0.777709961,-0.010864258
1181.198,0.64515686,0.838897705,-0.015731812
1190.885,0.61390686,0.806121826,-0.049591064
1200.566,0.596206665,0.761154175,-0.12020874
1210.248,0.623855591,0.711105347,-0.184967041
1219.927,0.673736572,0.683837891,-0.170898438
1229.594,0.705764771,0.712814331,-0.157394409
1239.29,0.715316772,0.765686035,-0.19241333
1248.971,0.785812378,0.775924683,-0.197311401
1258.635,0.820114136,0.724517822,-0.168716431
1268.335,0.768890381,0.651504517,-0.137023926
1278.017,0.735031128,0.641159058,-0.139587402
1287.686,0.699111938,0.643173218,-0.168518066
1297.383,0.725860596,0.655517578,-0.197402954
1307.068,0.810317993,0.677902222,-0.220062256
1316.751,0.891952515,0.702438354,-0.215179443
1326.433,0.947128296,0.730987549,-0.217971802
1336.1,0.941635132,0.723556519,-0.220443726
1345.798,0.91418457,0.686141968,-0.216094971
1355.481,0.869659424,0.637481689,-0.176025391
1365.153,0.835494995,0.624710083,-0.169891357
1374.845,0.878738403,0.667266846,-0.230072021
1384.524,0.81312561,0.68598938,-0.180328369
1394.206,0.819320679,0.750915527,-0.199584961
1403.862,0.843841553,0.744064331,-0.289886475
1413.566,0.739822388,0.675537109,-0.287750244
1423.254,0.599395752,0.560150146,-0.198028564
1432.945,0.57522583,0.539276123,-0.24458313
1442.628,0.610992432,0.575820923,-0.22227478
1452.304,0.517944336,0.614578247,-0.051391602
1461.992,0.34916687,0.608642578,0.009613037
1471.676,0.200531006,0.595825195,0.011947632
1481.356,0.098083496,0.536468506,0.008087158
1491.036,0.019241333,0.480407715,-0.03553772
1500.712,0.006469727,0.485351563,-0.062316895
1510.396,0.082855225,0.535308838,-0.05531311
1520.082,0.282241821,0.680923462,-0.031784058
1529.748,0.60585022,0.89175415,-0.035919189
1539.447,0.813796997,1.063308716,-0.015853882
1549.129,0.8309021,1.110275269,-0.012619019
1558.787,0.87336731,1.133163452,-0.067993164
1568.492,1.00239563,1.155609131,-0.184341431
1578.17,1.102218628,1.010879517,-0.315444946
1587.836,1.150161743,0.74067688,-0.317276001
1597.514,1.198974609,0.628921509,-0.383331299
1607.202,1.17565918,0.62651062,-0.410949707
1616.885,1.100006104,0.671707153,-0.390029907
1626.568,1.135269165,0.715133667,-0.375640869
1636.25,1.202072144,0.709503174,-0.393585205
1645.932,1.167221069,0.695098877,-0.408050537
1655.614,1.089950562,0.648712158,-0.422866821
1665.294,0.954330444,0.599655151,-0.422073364
1674.995,0.837371826,0.562347412,-0.419998169
1684.677,0.709274292,0.589675903,-0.377792358
1694.346,0.697158813,0.694274902,-0.380691528
1704.038,0.771240234,0.770431519,-0.431869507
1713.719,0.832809448,0.778030396,-0.469024658
1723.399,0.919006348,0.785186768,-0.499893188
1733.081,0.971542358,0.809127808,-0.496078491
1742.747,0.963973999,0.803451538,-0.400924683
1752.435,0.893295288,0.752426147,-0.231735229
1762.125,0.834259033,0.726150513,-0.178451538
1771.807,0.753219604,0.704544067,-0.174880981
1781.489,0.654373169,0.673019409,-0.207839966
1791.148,0.508041382,0.616729736,-0.226806641
1800.855,0.340057373,0.572296143,-0.244796753
1810.537,0.226654053,0.543624878,-0.194076538
1820.218,0.17855835,0.494186401,-0.085479736
1829.875,0.179412842,0.451660156,-0.050689697
1839.582,0.193496704,0.473007202,-0.059875488
1849.264,0.195297241,0.514022827,-0.118164063
1858.928,0.206619263,0.433868408,-0.182250977
1868.633,0.17137146,0.242279053,-0.137329102
1878.315,0.146102905,0.191360474,0.022064209
1887.969,0.315872192,0.357925415,0.12286377
1897.676,0.599227905,0.520355225,-0.018890381
1907.358,0.920669556,0.41973877,-0.172546387
1917.035,1.148696899,0.291656494,-0.388214111
1926.707,1.206680298,0.3099823,-0.511352539
1936.405,1.079269409,0.539352417,-0.562652588
1946.087,0.963592529,0.824951172,-0.451202393
1955.769,0.936798096,0.969863892,-0.375213623
1965.45,0.955459595,1.041412354,-0.376831055
1975.133,0.98260498,0.967453003,-0.356613159
1984.816,0.98475647,0.859375,-0.375335693
1994.487,0.922897339,0.787689209,-0.447784424
2004.183,0.75402832,0.815872192,-0.458099365
2013.866,0.53742981,0.906570435,-0.461410522
2023.538,0.280487061,1.109161377,-0.477218628
2033.23,0.198654175,1.129394531,-0.473587036
2042.913,0.252761841,1.062072754,-0.42300415
2052.591,0.389984131,1.127578735,-0.43309021
2062.276,0.456375122,1.184875488,-0.326873779
2071.959,0.474990845,1.208023071,-0.291549683
2081.632,0.442932129,1.211288452,-0.283615112
2091.32,0.390411377,1.181518555,-0.380859375
2101.001,0.310470581,1.028808594,-0.28805542
2110.683,0.198822021,0.87399292,-0.206924438
2120.341,0.107025146,0.85697937,-0.181167603
2130.046,0.080825806,0.919815063,-0.18548584
2139.728,0.09475708,0.871047974,-0.151153564
2149.394,0.143554688,0.787887573,-0.159957886
2159.069,0.322723389,0.8565979,-0.253967285
2168.776,0.454101563,0.963363647,-0.317337036
2178.435,0.528579712,1.070251465,-0.240661621
2188.122,0.65776062,1.247329712,-0.309371948
2197.795,0.776504517,1.444519043,-0.404815674
2207.499,0.819869995,1.550064087,-0.313156128
2217.166,0.718933105,1.174636841,0.179656982
2226.846,0.654541016,0.903579712,0.226470947
2236.528,0.622344971,0.68409729,0.147872925
2246.215,0.61706543,0.438674927,0.10307312
2255.892,0.566802979,0.265884399,0.040969849
2265.575,0.573013306,0.316726685,-0.133712769
2275.255,0.632232666,0.479553223,-0.205474854
2284.955,0.655181885,0.609512329,-0.19593811
2294.627,0.673477173,0.684814453,-0.161590576
2304.32,0.709899902,0.731750488,-0.129577637
2314.002,0.774795532,0.729751587,-0.092132568
2323.68,0.866210938,0.698745728,-0.080932617
2333.365,0.954940796,0.704391479,-0.077407837
2343.046,0.980499268,0.745803833,-0.080612183
2352.726,0.981781006,0.761367798,-0.134872437
2362.411,0.939834595,0.700790405,-0.192321777
2372.093,0.85736084,0.682189941,-0.247650146
2381.766,0.762023926,0.672439575,-0.266159058
2391.454,0.688247681,0.675384521,-0.250808716
2401.135,0.634216309,0.678573608,-0.169052124
2410.815,0.628326416,0.710189819,-0.120361328
2420.497,0.64050293,0.816513062,-0.157653809
2430.18,0.583892822,0.856323242,-0.222442627
2439.862,0.510772705,0.873672485,-0.316833496
2449.534,0.505844116,0.858383179,-0.363510132
2459.209,0.56489563,0.818450928,-0.228042603
2468.91,0.636627197,0.778488159,-0.023101807
2478.591,0.662826538,0.722244263,0.069213867
2488.262,0.677642822,0.689758301,0.006072998
2497.956,0.685806274,0.703918457,-0.112319946
2507.639,0.620849609,0.789215088,-0.154037476
2517.315,0.460113525,0.8959198,-0.063690186
2527.007,0.388565063,0.930908203,0.001571655
2536.69,0.416946411,0.866989136,0.021377563
2546.364,0.479751587,0.79750061,0.053924561
2556.054,0.536727905,0.782165527,0.00050354
2565.737,0.560241699,0.836776733,-0.17414856
2575.419,0.584579468,0.777175903,-0.454711914
2585.103,0.567626953,0.625213623,-0.677017212
2594.785,0.493972778,0.565444946,-0.843231201
2604.467,0.472595215,0.604827881,-0.912017822
2614.151,0.429199219,0.56312561,-0.750030518
2623.82,0.426696777,0.519195557,-0.511138916
2633.515,0.455932617,0.516204834,-0.326675415
2643.198,0.465911865,0.462341309,-0.184906006
2652.873,0.432998657,0.397262573,-0.087722778
2662.564,0.270904541,0.354415894,-0.050750732
2672.247,0.34967041,0.452987671,-0.298965454
2681.921,0.549530029,0.597137451,-0.500854492
2691.615,0.68661499,0.685928345,-0.614334106
2701.293,0.753433228,0.770629883,-0.625473022
2710.974,0.714431763,0.827758789,-0.513015747
2720.663,0.61100769,0.731613159,-0.284881592
2730.345,0.592651367,0.691055298,-0.085906982
2740.001,0.600265503,0.783874512,-0.065505981
2749.712,0.621444702,0.878250122,-0.032623291
2759.379,0.556900024,1.090423584,0.153381348
2769.071,0.612564087,1.239074707,-0.076553345
2778.758,0.618759155,1.333969116,-0.117523193
2788.432,0.5262146,1.320968628,-0.105361938
2798.102,0.496414185,1.34375,-0.37890625
2807.798,0.46913147,1.116333008,-0.589904785
2817.461,0.418060303,0.824859619,-0.342224121
2827.172,0.403137207,0.795822144,-0.221862793
2836.838,0.436386108,0.801895142,-0.19367981
2846.52,0.468978882,0.816390991,-0.148101807
2856.212,0.50843811,0.826263428,-0.111175537
2865.889,0.538635254,0.803482056,-0.1146698
2875.571,0.571609497,0.77885437,-0.159103394
2885.254,0.590652466,0.774642944,-0.206604004
2894.954,0.622238159,0.776702881,-0.219940186
2904.636,0.64163208,0.772079468,-0.220275879
2914.317,0.654846191,0.784606934,-0.225021362
2923.991,0.641815186,0.781066895,-0.2159729
2933.686,0.614562988,0.782821655,-0.202636719
2943.369,0.590042114,0.759002686,-0.182693481
2953.044,0.562820435,0.70866394,-0.168395996
2962.736,0.559265137,0.683776855,-0.1668396
2972.42,0.568161011,0.677276611,-0.168395996
2982.088,0.57963562,0.684356689,-0.186767578
2991.787,0.590820313,0.694030762,-0.1925354
3001.472,0.599517822,0.704177856,-0.202926636
3011.142,0.588256836,0.652084351,-0.219940186
3020.84,0.637649536,0.680099487,-0.232757568
3030.524,0.702453613,0.775970459,-0.231063843
3040.208,0.762176514,0.860122681,-0.24848938
3049.892,0.788452148,0.900314331,-0.246765137
3059.55,0.764465332,0.900787354,-0.262939453
3069.259,0.695495605,0.836410522,-0.281570435
3078.943,0.64225769,0.751800537,-0.282653809
3088.62,0.613204956,0.67755127,-0.274749756
3098.312,0.586578369,0.63861084,-0.280014038
3107.991,0.574813843,0.620666504,-0.296234131
3117.678,0.567047119,0.618515015,-0.309112549
3127.362,0.55871582,0.621444702,-0.317062378
3137.045,0.548599243,0.618377686,-0.268249512
3146.722,0.539474487,0.609115601,-0.18447876
3156.412,0.555023193,0.628448486,-0.115982056
3166.094,0.595306396,0.677062988,-0.110794067
3175.772,0.642288208,0.732223511,-0.153549194
3185.462,0.717391968,0.816177368,-0.256027222
3195.145,0.796981812,0.90713501,-0.373855591
3204.828,0.850326538,1.001846313,-0.440612793
3214.512,0.844650269,1.009246826,-0.426727295
3224.19,0.783065796,0.946853638,-0.364395142
3233.877,0.709411621,0.851257324,-0.327377319
3243.559,0.646820068,0.744842529,-0.324417114
3253.215,0.612304688,0.681213379,-0.31350708
3262.924,0.607116699,0.660720825,-0.309844971
3272.606,0.60987854,0.675170898,-0.325592041
3282.268,0.615966797,0.690963745,-0.335632324
3291.969,0.614852905,0.6847229,-0.360961914
3301.653,0.613616943,0.669906616,-0.371124268
3311.335,0.609344482,0.668014526,-0.357376099
3321.016,0.608291626,0.676147461,-0.333816528
3330.698,0.604263306,0.673736572,-0.319137573
3340.379,0.598937988,0.660079956,-0.317749023
3350.06,0.599060059,0.643341064,-0.30670166
3359.744,0.607299805,0.630584717,-0.311782837
3369.426,0.616027832,0.631958008,-0.324798584
3379.107,0.625289917,0.629119873,-0.349411011
3388.774,0.64239502,0.608779907,-0.373031616
3398.472,0.653945923,0.603179932,-0.406463623
3408.153,0.66027832,0.599365234,-0.430084229
3417.828,0.663574219,0.596282959,-0.437225342
3427.518,0.669189453,0.592544556,-0.438201904
3437.175,0.681274414,0.595046997,-0.444793701
3446.879,0.699188232,0.58782959,-0.453903198
3456.539,0.708557129,0.589309692,-0.471191406
3466.237,0.715209961,0.586608887,-0.471343994
3475.91,0.720214844,0.577255249,-0.462585449
3485.595,0.723953247,0.565124512,-0.442199707
3495.277,0.714645386,0.546524048,-0.405807495
3504.961,0.708709717,0.533828735,-0.372344971
3514.66,0.724472046,0.538406372,-0.353027344
3524.333,0.764144897,0.572799683,-0.319580078
3534.006,0.827514648,0.622833252,-0.276885986
3543.705,0.906234741,0.694641113,-0.285018921
3553.386,1.021148682,0.821395874,-0.370956421
3563.068,1.163970947,1.03326416,-0.552017212
3572.746,1.15838623,1.248519897,-0.648712158
3582.406,1.0025177,1.274429321,-0.499649048
3592.114,0.862838745,1.199401855,-0.337234497
3601.797,0.827941895,1.078445435,-0.253204346
3611.469,0.871307373,0.955993652,-0.170776367
3621.161,0.907806396,0.876358032,-0.108428955
3630.842,0.942474365,0.832901001,-0.088653564
3640.501,0.944290161,0.792205811,-0.083633423
3650.206,0.91758728,0.750076294,-0.101104736
3659.89,0.872421265,0.716812134,-0.087814331
3669.572,0.819702148,0.679077148,-0.070877075
3679.255,0.774139404,0.649475098,-0.036773682
3688.939,0.742767334,0.617126465,-0.005599976
3698.621,0.69708252,0.618087769,0.03968811
3708.304,0.675582886,0.634338379,0.076675415
3717.967,0.671936035,0.647323608,0.111099243
3727.667,0.6796875,0.655502319,0.147674561
3737.346,0.681991577,0.659820557,0.183349609
3747.021,0.680770874,0.651138306,0.210113525
3756.708,0.667831421,0.636169434,0.22492981
3766.383,0.644180298,0.611297607,0.221847534
3776.058,0.619949341,0.5730896,0.208114624
3785.747,0.602935791,0.541976929,0.192749023
3795.426,0.59828186,0.512008667,0.175811768
3805.099,0.596069336,0.485992432,0.167572021
3814.786,0.606536865,0.467697144,0.154312134
3824.403542,0.620056152,0.4506073,0.146347046
3834.083542,0.646835327,0.431488037,0.153610229
3843.762542,0.673904419,0.408950806,0.150146484
3853.421542,0.690322876,0.398803711,0.157241821
3863.120542,0.708053589,0.391952515,0.173828125
3872.799542,0.725738525,0.399169922,0.195281982
3882.467542,0.737350464,0.401992798,0.230895996
3892.141542,0.75869751,0.409866333,0.244445801
3901.843542,0.76890564,0.421279907,0.237808228
3911.498542,0.777954102,0.445495605,0.221481323
3921.201542,0.794952393,0.469528198,0.183731079
3930.891542,0.807266235,0.498916626,0.156448364
3940.564542,0.813018799,0.525482178,0.140823364
3950.256542,0.824142456,0.552490234,0.127548218
3959.938542,0.829711914,0.584945679,0.121078491
3969.613542,0.837036133,0.606460571,0.109848022
3979.238542,0.838485718,0.62272644,0.105926514
3988.914542,0.856704712,0.604217529,0.099243164
3998.593542,0.847824097,0.6277771,0.083557129
4008.283542,0.844223022,0.647079468,0.073196411
4017.937542,0.846115112,0.645797729,0.051086426
4027.646542,0.837142944,0.647399902,0.031616211
4037.328542,0.834457397,0.634048462,0.016998291
4047.009542,0.827575684,0.622146606,0.003067017
4056.691542,0.83052063,0.602722168,0.00038147
4066.374542,0.836135864,0.586227417,-0.005783081
4076.057542,0.846374512,0.571807861,-0.013504028
4085.741542,0.859481812,0.564910889,-0.019302368
4095.424542,0.87348938,0.563964844,-0.020935059
4105.095542,0.894607544,0.566696167,-0.026260376
4114.791542,0.912063599,0.573059082,-0.029678345
4124.473542,0.931442261,0.578536987,-0.036437988
4134.147542,0.947341919,0.582931519,-0.041397095
4143.839542,0.95916748,0.585693359,-0.047622681
4153.496542,0.969970703,0.587966919,-0.045837402
4163.198542,0.97605896,0.595275879,-0.043823242
4172.889542,0.978515625,0.608718872,-0.037506104
4182.548542,0.976043701,0.622329712,-0.033920288
4192.235542,0.972763062,0.640487671,-0.029342651
4201.927542,0.962921143,0.656661987,-0.0206604
4211.619542,0.951187134,0.670379639,-0.007980347
4221.307542,0.946029663,0.691299438,0.005783081
4230.969542,0.944549561,0.717529297,0.023529053
4240.654542,0.948654175,0.739532471,0.052520752
4250.338542,0.951416016,0.758911133,0.080230713
4260.022542,0.948760986,0.770874023,0.120193481
4269.697542,0.933822632,0.786209106,0.169174194
4279.388542,0.917495728,0.81312561,0.209518433
4289.087542,0.918685913,0.849060059,0.254302979
4298.755542,0.926086426,0.870330811,0.295394897
4308.456542,0.911636353,0.888458252,0.332015991
4318.140542,0.860580444,0.91116333,0.37121582
4327.811542,0.781570435,0.911026001,0.394821167
4337.508542,0.673187256,0.890533447,0.42666626
4347.185542,0.58164978,0.852493286,0.436233521
4356.873542,0.501602173,0.814239502,0.438690186
4366.557542,0.434188843,0.768035889,0.413604736
4376.214542,0.418579102,0.685852051,0.34312439
4385.923542,0.402053833,0.607040405,0.28288269
4395.605542,0.420288086,0.54838562,0.225219727
4405.266542,0.469390869,0.522903442,0.19758606
4414.972542,0.548065186,0.529830933,0.191970825
4424.644542,0.649185181,0.56729126,0.192550659
4434.318542,0.75100708,0.602233887,0.183639526
4444.022542,0.816970825,0.60987854,0.155471802
4453.704542,0.834732056,0.581008911,0.125518799
4463.379542,0.810684204,0.512985229,0.087173462
4473.073542,0.768692017,0.442504883,0.062240601
4482.757542,0.712982178,0.385284424,0.037002563
4492.433542,0.667739868,0.339157104,0.009124756
4502.124542,0.632949829,0.311416626,-0.004470825
4511.807542,0.610626221,0.299789429,-0.012619019
4521.490542,0.602828979,0.29850769,-0.017730713
4531.174542,0.606674194,0.311004639,-0.017807007
4540.855542,0.615844727,0.336853027,-0.004455566
4550.529542,0.62651062,0.36479187,0.003845215
4560.224542,0.62840271,0.391815186,0.012069702
4569.902542,0.626159668,0.424499512,0.016494751
4579.589542,0.622665405,0.460113525,0.024551392
4589.272542,0.626968384,0.504516602,0.03012085
4598.928542,0.630691528,0.556045532,0.039901733
4608.638542,0.633468628,0.604690552,0.042160034
4618.321542,0.6300354,0.6534729,0.048660278
4627.989542,0.624298096,0.69291687,0.048965454
4637.687542,0.610168457,0.724380493,0.049575806
4647.370542,0.586196899,0.750442505,0.053070068
4657.052542,0.560134888,0.755966187,0.053878784
4666.735542,0.520187378,0.755859375,0.055831909
4676.417542,0.490097046,0.734741211,0.065765381
4686.099542,0.456985474,0.717849731,0.075256348
4695.781542,0.442871094,0.698440552,0.086837769
4705.437542,0.4425354,0.685775757,0.10949707
4715.146542,0.457611084,0.674880981,0.130279541
4724.828542,0.47984314,0.673995972,0.145996094
4734.510542,0.510437012,0.669769287,0.155578613
4744.192542,0.538619995,0.662261963,0.162872314
4753.868542,0.557693481,0.650985718,0.166030884
4763.541542,0.575744629,0.627929688,0.165847778
4773.220542,0.590103149,0.608200073,0.166473389
4782.917542,0.604705811,0.592071533,0.168380737
4792.598542,0.621520996,0.577941895,0.171020508
4802.289542,0.633361816,0.568756104,0.178665161
4811.943542,0.636672974,0.563217163,0.187927246
4821.647542,0.633148193,0.558700562,0.205871582
4831.317542,0.621261597,0.554260254,0.22076416
4841.011542,0.601928711,0.547454834,0.232620239
4850.677542,0.575073242,0.536727905,0.240005493
4860.360542,0.54258728,0.527938843,0.244857788
4870.048542,0.514053345,0.520217896,0.245742798
4879.732542,0.49269104,0.522750854,0.248748779
4889.406542,0.480407715,0.534378052,0.253234863
4899.102542,0.473022461,0.547683716,0.255752563
4908.785542,0.462509155,0.553405762,0.257263184
4918.468542,0.457000732,0.552444458,0.257354736
4928.138542,0.456436157,0.540328979,0.257171631
4937.829542,0.459152222,0.511047363,0.260345459
4947.512542,0.455673218,0.478805542,0.271972656
4957.192542,0.443908691,0.46887207,0.295410156
4966.877542,0.43927002,0.479568481,0.333877563
4976.554542,0.452148438,0.507461548,0.377990723
4986.242542,0.476119995,0.54347229,0.418395996
4995.925542,0.512786865,0.592849731,0.443786621
5005.606542,0.55355835,0.63142395,0.466674805
5015.288542,0.622802734,0.662765503,0.478485107
5024.969542,0.696609497,0.722015381,0.486831665
5034.630542,0.779815674,0.792648315,0.512329102
5044.333542,0.882141113,0.882751465,0.562744141
5054.014542,1.024765015,0.968551636,0.593170166
5063.682542,1.210662842,1.087219238,0.635574341
5073.376542,1.43862915,1.215026855,0.674545288
5083.058542,1.671569824,1.313369751,0.651824951
5092.731542,1.840637207,1.354202271,0.582366943
5102.422542,1.914978027,1.272796631,0.487182617
5112.104542,1.8152771,1.100524902,0.346298218
5121.788542,1.606948853,0.87411499,0.202194214
5131.469542,1.390548706,0.678573608,0.075668335
5141.151542,1.204879761,0.548675537,-0.017562866
5150.831542,1.099822998,0.470581055,-0.077026367
5160.484542,1.0493927,0.436920166,-0.104110718
5170.189542,1.036621094,0.438766479,-0.105667114
5179.874542,1.048828125,0.463668823,-0.101501465
5189.555542,1.054153442,0.50541687,-0.083786011
5199.211542,1.035797119,0.549850464,-0.068237305
5208.919542,0.984191895,0.587051392,-0.0493927
5218.600542,0.903869629,0.603897095,-0.030227661
5228.254542,0.831222534,0.598205566,-0.014862061
5237.938542,0.768630981,0.587112427,-0.002334595
5247.644542,0.710327148,0.566268921,0.004226685
5257.316542,0.656082153,0.570007324,0.022445679
5267.005542,0.606811523,0.569137573,0.032318115
5276.686542,0.566833496,0.579330444,0.037216187
5286.363542,0.548797607,0.585754395,0.047973633
5296.050542,0.528701782,0.597946167,0.063735962
5305.717542,0.52255249,0.603500366,0.082733154
5315.411542,0.530334473,0.595855713,0.104980469
5325.092542,0.539230347,0.574462891,0.119552612
5334.772542,0.554824829,0.545516968,0.12878418
5344.452542,0.575119019,0.516891479,0.132949829
5354.132542,0.60357666,0.492538452,0.13482666
5363.792542,0.626968384,0.470977783,0.137557983
5373.493542,0.643356323,0.447067261,0.143096924
5383.173542,0.65473938,0.421432495,0.153701782
5392.833542,0.66784668,0.40272522,0.161987305
5402.534542,0.685440063,0.389328003,0.172851563
5412.216542,0.704071045,0.386459351,0.198028564
5421.898542,0.730056763,0.390060425,0.230148315
5431.579542,0.744628906,0.398483276,0.265029907
5441.246542,0.756973267,0.403839111,0.296691895
5450.936542,0.772140503,0.409912109,0.332199097
5460.625542,0.781417847,0.418731689,0.353668213
5470.299542,0.786178589,0.413894653,0.355148315
5479.962542,0.777328491,0.399154663,0.346008301
5489.666542,0.745849609,0.378982544,0.316009521
5499.329542,0.71156311,0.366607666,0.29788208
5509.013542,0.673156738,0.362060547,0.302001953
5518.695542,0.653625488,0.364181519,0.326263428
5528.374542,0.63961792,0.370040894,0.356369019
5538.052542,0.635375977,0.376464844,0.383270264
5547.732542,0.635055542,0.384140015,0.406219482
5557.417542,0.63180542,0.396606445,0.404541016
5567.100542,0.621154785,0.411224365,0.398635864
5576.784542,0.61038208,0.42539978,0.391906738
5586.463542,0.597000122,0.438308716,0.390991211
5596.142542,0.584838867,0.446609497,0.407440186
5605.821542,0.582244873,0.469924927,0.428253174
5615.501542,0.634017944,0.524688721,0.403457642
5625.181542,0.727645874,0.589096069,0.353500366
5634.861542,0.88230896,0.630340576,0.288696289
5644.542542,0.979049683,0.67755127,0.222549438
5654.221542,0.985244751,0.701690674,0.191497803
5663.902542,0.971725464,0.698257446,0.20715332
5673.584542,0.967803955,0.681625366,0.241195679
5683.265542,0.970962524,0.667892456,0.278289795
5692.926542,0.984100342,0.653076172,0.288711548
5702.628542,0.988037109,0.644943237,0.312149048
5712.307542,0.985458374,0.629486084,0.345184326
5721.974542,0.997619629,0.612838745,0.36076355
5731.669542,1.084564209,0.631134033,0.334991455
5741.350542,1.234512329,0.608978271,0.292938232
5751.032542,1.46862793,0.634994507,0.285232544
5760.713542,1.779312134,0.670028687,0.250595093
5770.378542,1.997039795,0.686508179,0.241149902
5780.078542,1.952438354,0.629669189,0.241088867
5789.758542,1.783843994,0.525131226,0.084182739
5799.431542,1.653625488,0.455413818,-0.1146698
5809.123542,1.534973145,0.383560181,-0.245300293
5818.804542,1.373565674,0.311737061,-0.326950073
5828.483542,1.172515869,0.224060059,-0.378326416
5838.167542,0.98991394,0.1612854,-0.360549927
5847.848542,0.890716553,0.118759155,-0.345397949
5857.506542,0.88104248,0.100997925,-0.31451416
5867.211542,0.906326294,0.086227417,-0.308959961
5876.895542,0.926330566,0.066497803,-0.308013916
5886.567542,0.900466919,0.038162231,-0.306716919
5896.232542,0.833297729,0.011581421,-0.339187622
5905.936542,0.758850098,-0.01524353,-0.338592529
5915.618542,0.690856934,-0.023361206,-0.320922852
5925.300542,0.64831543,-0.037719727,-0.317214966
5934.983542,0.616394043,-0.054748535,-0.365707397
5944.664542,0.584991455,-0.07270813,-0.492370605
5954.347542,0.569534302,-0.060501099,-0.652130127
5964.012542,0.56690979,0.018615723,-0.787811279
5973.703542,0.569396973,0.153915405,-0.820129395
5983.392542,0.592514038,0.228851318,-0.738647461
5993.065542,0.612625122,0.266876221,-0.626281738
6002.754542,0.627212524,0.289016724,-0.525878906
6012.430542,0.657699585,0.297607422,-0.497055054
6022.110542,0.68409729,0.311889648,-0.558624268
6031.799542,0.698623657,0.293991089,-0.677581787
6041.465542,0.731231689,0.283554077,-0.709701538
6051.154542,0.79083252,0.282165527,-0.698196411
6060.842542,0.824295044,0.278457642,-0.685897827
6070.518542,0.830200195,0.267959595,-0.664367676
6080.185542,0.819580078,0.252059937,-0.622192383
6089.876542,0.798095703,0.244766235,-0.578674316
6099.541542,0.771499634,0.237426758,-0.54498291
6109.239542,0.742889404,0.221343994,-0.553634644
6118.904542,0.712875366,0.208236694,-0.569747925
6128.593542,0.700485229,0.199951172,-0.580291748
6138.268542,0.683822632,0.203079224,-0.583847046
6147.949542,0.669540405,0.2059021,-0.596221924
6157.645542,0.665313721,0.211502075,-0.607315063
6167.312542,0.66633606,0.218444824,-0.610687256
6177.010542,0.672958374,0.224517822,-0.606246948
6186.683542,0.679473877,0.224533081,-0.59715271
6196.373542,0.685775757,0.221450806,-0.593948364
6206.054542,0.696807861,0.219451904,-0.597503662
6215.735542,0.71105957,0.215621948,-0.591400146
6225.416542,0.720275879,0.220153809,-0.586868286
6235.097542,0.73147583,0.226776123,-0.589828491
6244.778542,0.742233276,0.235641479,-0.587219238
6254.448542,0.743392944,0.240631104,-0.584152222
6264.122542,0.743362427,0.242797852,-0.575653076
6273.824542,0.74772644,0.254272461,-0.555862427
6283.507542,0.759262085,0.267242432,-0.560150146
6293.175542,0.779525757,0.27885437,-0.571609497
6302.865542,0.801040649,0.295822144,-0.592269897
6312.553542,0.822875977,0.308547974,-0.606491089
6322.226542,0.850448608,0.321960449,-0.611679077
6331.917542,0.867950439,0.340454102,-0.601699829
6341.599542,0.880630493,0.365158081,-0.595932007
6351.273542,0.905838013,0.404495239,-0.625442505
6360.935542,0.993682861,0.452468872,-0.676589966
6370.640542,1.10357666,0.533081055,-0.716186523
6380.321542,1.144699097,0.631469727,-0.711242676
6390.007542,1.109161377,0.746810913,-0.650482178
6399.681542,1.036132813,0.818099976,-0.589889526
6409.369542,0.990921021,0.788787842,-0.566940308
6419.051542,1.044158936,0.695144653,-0.569976807
6428.734542,1.126464844,0.643630981,-0.567428589
6438.417542,1.196487427,0.632553101,-0.54586792
6448.099542,1.2394104,0.609695435,-0.533691406
6457.757542,1.2447052,0.576385498,-0.515075684
6467.757542,1.195022583,0.535110474,-0.460693359
6477.400542,1.12097168,0.479919434,-0.388412476
6487.082542,1.042556763,0.438232422,-0.297683716
6496.751542,0.963241577,0.409912109,-0.227020264
6506.445542,0.900558472,0.401901245,-0.182937622
6516.123542,0.850296021,0.4009552,-0.154418945
6525.784542,0.822631836,0.411148071,-0.146987915
6535.491542,0.815460205,0.429580688,-0.1277771
6545.171542,0.818466187,0.451797485,-0.104721069
6554.835542,0.849822998,0.467315674,-0.096069336
6564.535542,0.88961792,0.493408203,-0.073883057
6574.218542,0.929046631,0.515274048,-0.063369751
6583.892542,0.959625244,0.524169922,-0.054153442
6593.581542,0.962844849,0.514984131,-0.052597046
6603.262542,0.947067261,0.491104126,-0.055130005
6612.944542,0.91545105,0.460769653,-0.055755615
6622.628542,0.887161255,0.429473877,-0.058425903
6632.290542,0.856170654,0.402648926,-0.065841675
6641.989542,0.825805664,0.380752563,-0.066589355
6651.679542,0.805145264,0.364608765,-0.072143555
6661.343542,0.787750244,0.342514038,-0.083938599
6671.047542,0.765106201,0.324050903,-0.095199585
6680.730542,0.74168396,0.309143066,-0.086715698
6690.396542,0.726364136,0.293670654,-0.084243774
6700.096542,0.713745117,0.283920288,-0.084686279
6709.778542,0.710571289,0.282928467,-0.087585449
6719.449542,0.719192505,0.285079956,-0.085647583
6729.142542,0.728790283,0.300582886,-0.083679199
6738.825542,0.743667603,0.318618774,-0.081222534
6748.509542,0.758804321,0.333053589,-0.076477051
6758.191542,0.764053345,0.348861694,-0.078735352
6767.873542,0.772369385,0.361404419,-0.084014893
6777.555542,0.772735596,0.369476318,-0.099990845
6787.236542,0.771408081,0.378417969,-0.112121582
6796.903542,0.778396606,0.391098022,-0.124206543
6806.603542,0.776977539,0.409057617,-0.132888794
6816.286542,0.780776978,0.424957275,-0.145492554
6825.956542,0.786911011,0.447402954,-0.148864746
6835.651542,0.792175293,0.461700439,-0.149688721
6845.327542,0.79914856,0.478393555,-0.152770996
6855.008542,0.814254761,0.492385864,-0.155502319
6864.697542,0.833694458,0.504150391,-0.162124634
6874.356542,0.840103149,0.516220093,-0.162277222
6884.055542,0.842727661,0.520965576,-0.15788269
6893.747542,0.848251343,0.522079468,-0.149475098
6903.421542,0.85144043,0.51512146,-0.133621216
6913.113542,0.880737305,0.500183105,-0.126083374
6922.788542,0.904647827,0.486328125,-0.114303589
6932.449542,0.930541992,0.481399536,-0.110168457
6942.160542,0.95300293,0.481307983,-0.112487793
6951.826542,0.979324341,0.47869873,-0.119293213
6961.506542,0.992111206,0.483459473,-0.116943359
6971.195542,0.985855103,0.481719971,-0.126220703
6980.879542,0.982559204,0.472122192,-0.132537842
6990.548542,0.98336792,0.462509155,-0.138824463
7000.244542,0.989318848,0.458557129,-0.13973999
7009.943542,1.001449585,0.452148438,-0.145355225
7019.616542,1.011154175,0.44519043,-0.153594971
7029.307542,1.022323608,0.4427948,-0.16104126
7038.989542,1.026245117,0.440658569,-0.169586182
7048.664542,1.022293091,0.438705444,-0.174346924
7058.352542,1.016998291,0.456512451,-0.181793213
7068.035542,0.9974823,0.492446899,-0.165161133
7077.717542,1.062576294,0.536834717,-0.146011353
7087.399542,1.130737305,0.57951355,-0.120681763
7097.080542,1.161132813,0.612304688,-0.075241089
7106.764542,1.117996216,0.644760132,-0.014434814
7116.446542,1.023147583,0.666732788,0.091094971
7126.126542,0.934356689,0.677749634,0.188766479
7135.812542,0.860122681,0.695465088,0.278045654
7145.495542,0.80480957,0.717330933,0.34552002
7155.148542,0.749740601,0.754638672,0.406845093
7164.861542,0.720626831,0.77444458,0.412231445
7174.545542,0.695968628,0.784393311,0.357589722
7184.218542,0.660476685,0.787094116,0.278793335
7193.911542,0.616546631,0.792221069,0.215530396
7203.595542,0.56463623,0.764831543,0.139511108
7213.270542,0.491271973,0.722518921,0.104919434
7222.960542,0.437759399,0.642318726,0.089309692
7232.643542,0.433563232,0.558197021,0.093856812
7242.327542,0.460250854,0.500305176,0.100692749
7252.011542,0.519378662,0.48223877,0.11000061
7261.694542,0.62097168,0.512161255,0.116287231
7271.378542,0.745040894,0.56867981,0.117477417
7281.060542,0.868835449,0.628509521,0.115539551
7290.738542,0.964996338,0.658493042,0.135818481
7300.425542,0.959976196,0.624435425,0.129928589
7310.108542,0.901229858,0.544998169,0.105194092
7319.790542,0.824478149,0.469802856,0.078338623
7329.473542,0.749404907,0.420532227,0.051895142
7339.156542,0.707321167,0.388778687,0.027664185
7348.829542,0.701583862,0.381988525,-0.004180908
7358.520542,0.724273682,0.378494263,-0.036239624
7368.203542,0.754150391,0.385848999,-0.062179565
7377.880542,0.778579712,0.39743042,-0.072067261
7387.570542,0.790847778,0.41217041,-0.076812744
7397.251542,0.776229858,0.429214478,-0.076004028
7406.933542,0.753005981,0.440917969,-0.069763184
7416.617542,0.730255127,0.454223633,-0.063064575
7426.300542,0.713287354,0.471191406,-0.047073364
7435.982542,0.701507568,0.487365723,-0.032913208
7445.663542,0.69342041,0.511932373,-0.015594482
7455.319542,0.685195923,0.533432007,-0.000442505
7465.029542,0.67237854,0.550811768,0.009979248
7474.712542,0.658355713,0.556915283,0.017150879
7484.369542,0.637924194,0.557556152,0.024658203
7494.079542,0.613830566,0.555496216,0.024154663
7503.762542,0.589614868,0.545715332,0.024459839
7513.439542,0.561523438,0.538467407,0.034744263
7523.132542,0.542816162,0.532836914,0.040802002
7532.794542,0.535675049,0.527252197,0.048812866
7542.499542,0.533630371,0.525924683,0.056793213
7552.182542,0.537734985,0.522384644,0.063949585
7561.855542,0.542953491,0.517700195,0.070480347
7571.552542,0.543411255,0.511108398,0.081695557
7581.209542,0.546005249,0.501235962,0.087265015
7590.908542,0.549301147,0.48878479,0.099273682
7600.583542,0.547058105,0.475479126,0.114486694
7610.274542,0.543014526,0.463302612,0.123443604
7619.962542,0.537979126,0.447494507,0.138046265
7629.633542,0.530044556,0.432434082,0.147872925
7639.317542,0.522216797,0.415420532,0.15284729
7648.997542,0.516464233,0.401046753,0.156433105
7658.684542,0.510574341,0.389419556,0.159164429
7668.367542,0.505447388,0.377044678,0.184326172
7678.050542,0.500366211,0.364624023,0.202178955
7687.733542,0.50553894,0.358932495,0.214096069
7697.433542,0.514389038,0.360839844,0.229812622
7707.117542,0.511016846,0.373855591,0.255584717
7716.800542,0.506500244,0.390655518,0.290512085
7726.468542,0.500961304,0.411010742,0.323913574
7736.163542,0.512802124,0.436981201,0.349975586
7745.847542,0.532348633,0.473220825,0.36555481
7755.520542,0.55418396,0.517822266,0.390716553
7765.214542,0.581207275,0.557830811,0.412689209
7774.896542,0.644134521,0.612258911,0.41015625
7784.574542,0.723968506,0.67930603,0.423797607
7794.182542,0.815383911,0.737945557,0.442092896
7803.866542,0.921676636,0.750701904,0.406784058
7813.548542,1.021057129,0.73588562,0.335479736
7823.248542,1.130325317,0.736846924,0.303756714
7832.925542,1.296813965,0.78944397,0.32611084
7842.602542,1.571212769,0.899749756,0.347488403
7852.298542,1.874847412,1.048034668,0.384216309
7861.980542,2.078948975,1.13494873,0.364776611
7871.655542,2.188171387,1.184204102,0.289398193
7881.350542,2.077804565,1.116256714,0.169052124
7891.030542,1.763076782,0.920730591,0.038726807
7900.707542,1.434768677,0.729064941,-0.058944702
7910.399542,1.221389771,0.613983154,-0.092834473
7920.082542,1.118087769,0.559310913,-0.11831665
7929.767542,1.087768555,0.533294678,-0.13494873
7939.450542,1.090957642,0.525436401,-0.1615448
7949.132542,1.100891113,0.531417847,-0.188735962
7958.816542,1.095504761,0.536941528,-0.207992554
7968.498542,1.057357788,0.535903931,-0.219284058
7978.160542,1.007293701,0.51914978,-0.214431763
7987.864542,0.944320679,0.495864868,-0.18850708
7997.547542,0.878814697,0.482055664,-0.158889771
8007.205542,0.811920166,0.470321655,-0.137557983
8016.916542,0.749588013,0.467056274,-0.115829468
8026.601542,0.704620361,0.460723877,-0.106170654
8036.266542,0.672637939,0.458099365,-0.102203369
8045.969542,0.648849487,0.455947876,-0.097122192
8055.653542,0.63482666,0.45098877,-0.089920044
8065.336542,0.616714478,0.449539185,-0.077346802
8075.018542,0.603622437,0.445083618,-0.062896729
8084.702542,0.59552002,0.442733765,-0.044433594
8094.386542,0.588638306,0.436889648,-0.027740479
8104.071542,0.580368042,0.43598938,-0.011123657
8113.756542,0.580154419,0.440322876,0.008331299
8123.439542,0.582870483,0.451980591,0.032165527
8133.122542,0.595474243,0.448425293,0.042495728
8142.804542,0.612472534,0.437210083,0.051803589
8152.486542,0.634216309,0.430892944,0.063400269
8162.169542,0.662033081,0.433349609,0.076187134
8171.826542,0.701217651,0.441421509,0.093521118
8181.535542,0.733917236,0.458786011,0.109436035
8191.203542,0.76322937,0.478408813,0.139953613
8200.892542,0.77923584,0.484451294,0.172927856
8210.581542,0.781524658,0.482498169,0.211517334
8220.264542,0.775146484,0.475204468,0.252593994
8229.946542,0.772460938,0.462783813,0.300323486
8239.608542,0.778762817,0.450149536,0.342605591
8249.309542,0.782028198,0.436141968,0.380722046
8258.990542,0.777374268,0.4190979,0.410507202
8268.672542,0.749252319,0.392562866,0.432449341
8278.339542,0.698989868,0.36026001,0.434890747
8288.037542,0.644790649,0.314300537,0.428955078
8297.721542,0.584289551,0.282867432,0.415634155
8307.384542,0.534866333,0.247833252,0.40763855
8317.089542,0.498245239,0.216949463,0.404830933
8326.772542,0.471374512,0.192459106,0.416046143
8336.447542,0.448776245,0.184082031,0.443862915
8346.134542,0.439224243,0.180908203,0.477386475
8355.817542,0.436904907,0.190628052,0.492462158
8365.472542,0.442993164,0.199569702,0.505935669
8375.184542,0.439834595,0.217391968,0.495437622
8384.867542,0.444976807,0.240036011,0.482376099
8394.549542,0.455108643,0.269821167,0.475036621
8404.232542,0.490219116,0.304473877,0.454299927
8413.914542,0.615005493,0.399993896,0.382965088
8423.598542,0.885848999,0.563873291,0.232437134
8433.280542,1.246551514,0.718673706,0.04486084
8442.943542,1.523071289,0.789215088,0.00604248
8452.645542,1.576202393,0.719726563,0.081924438
8462.327542,1.484725952,0.638153076,0.108947754
8471.996542,1.331497192,0.593490601,0.140670776
8481.689542,1.192138672,0.617340088,0.138809204
8491.372542,1.134063721,0.630599976,0.168228149
8501.044542,1.142211914,0.643539429,0.104858398
8510.735542,1.330368042,0.732589722,-0.007644653
8520.397542,1.697616577,0.855514526,-0.221343994
8530.098542,2.089645386,0.953735352,-0.426803589
8539.779542,2.303405762,0.928497314,-0.469848633
8549.461542,2.226257324,0.733474731,-0.347229004
8559.144542,1.957855225,0.42868042,-0.308776855
8568.826542,1.672134399,0.161071777,-0.361755371
8578.502542,1.418075562,0.027893066,-0.41015625
8588.188542,1.195495605,-0.030685425,-0.460830688
8597.870542,1.011550903,-0.034561157,-0.460525513
8607.524542,0.891372681,-0.003677368,-0.442947388
8617.234542,0.821273804,0.030883789,-0.461395264
8626.916542,0.785568237,0.075973511,-0.554336548
8636.570542,0.81086731,0.155410767,-0.754577637
8646.254542,0.76663208,0.232116699,-0.989624023
8655.960542,0.605880737,0.323532104,-1.192230225
8665.634542,0.410186768,0.367202759,-1.360366821
8675.325542,0.204742432,0.346908569,-1.412338257
8685.006542,0.140365601,0.274581909,-1.199493408
8694.663542,0.173171997,0.221801758,-0.899887085
8704.356542,0.242706299,0.193145752,-0.651382446
8714.051542,0.334243774,0.200195313,-0.504425049
8723.732542,0.41897583,0.199966431,-0.439743042
8733.408542,0.466766357,0.215835571,-0.413665771
8743.083542,0.485061646,0.220977783,-0.404510498
8752.779542,0.504150391,0.212036133,-0.416244507
8762.451542,0.520843506,0.195846558,-0.418319702
8772.132542,0.536514282,0.17326355,-0.419250488
8781.818542,0.558074951,0.156295776,-0.418563843
8791.495542,0.581375122,0.151489258,-0.404708862
8801.158542,0.606414795,0.159347534,-0.408737183
8810.844542,0.639587402,0.188858032,-0.433151245
8820.525542,0.672836304,0.211990356,-0.475601196
8830.135875,0.702438354,0.218017578,-0.528778076
8839.799875,0.719268799,0.207901001,-0.588058472
8849.483875,0.711898804,0.176879883,-0.659225464
8859.157875,0.673477173,0.146469116,-0.682891846
8868.858875,0.621902466,0.131591797,-0.686279297
8878.539875,0.571609497,0.137512207,-0.688110352
8888.221875,0.542984009,0.160995483,-0.755050659
8897.897875,0.52243042,0.179412842,-0.885971069
8907.577875,0.505874634,0.19128418,-0.96232605
8917.262875,0.495330811,0.21472168,-0.929290771
8926.944875,0.500473022,0.223434448,-0.83744812
8936.600875,0.529174805,0.226333618,-0.756652832
8946.307875,0.570770264,0.22718811,-0.70350647
8955.989875,0.619216919,0.240722656,-0.682632446
8965.660875,0.668212891,0.259094238,-0.689025879
8975.326875,0.714141846,0.27645874,-0.687835693
8985.033875,0.751068115,0.29850769,-0.688583374
8994.709875,0.781234741,0.319091797,-0.697265625
9004.398875,0.812683105,0.340057373,-0.705245972
9014.078875,0.848983765,0.359146118,-0.702163696
9023.760875,0.887695313,0.382110596,-0.710861206
9033.440875,0.928359985,0.408920288,-0.739562988
9043.121875,0.968475342,0.44430542,-0.779022217
9052.779875,1.015075684,0.484695435,-0.80317688
9062.485875,1.075424194,0.532608032,-0.829727173
9072.158875,1.133529663,0.589584351,-0.841156006
9081.849875,1.199371338,0.643737793,-0.845199585
9091.531875,1.259246826,0.677139282,-0.835769653
9101.185875,1.300552368,0.696060181,-0.810943604
9110.895875,1.315383911,0.69480896,-0.790481567
9120.577875,1.289199829,0.677581787,-0.748138428
9130.244875,1.226119995,0.638778687,-0.675720215
9139.943875,1.139144897,0.574127197,-0.598571777
9149.624875,1.031692505,0.49911499,-0.520431519
9159.306875,0.930374146,0.433013916,-0.443588257
9168.987875,0.867828369,0.376159668,-0.393127441
9178.669875,0.823165894,0.332733154,-0.34046936
9188.351875,0.797027588,0.295974731,-0.282272339
9198.032875,0.799911499,0.280151367,-0.22177124
9207.686875,0.827056885,0.27255249,-0.151504517
9217.395875,0.883026123,0.28729248,-0.112121582
9227.076875,0.955673218,0.313095093,-0.080749512
9236.736875,1.020324707,0.35559082,-0.068588257
9246.439875,1.076522827,0.400924683,-0.056045532
9256.123875,1.099014282,0.445327759,-0.011749268
9265.791875,1.06427002,0.440063477,0.007385254
9275.488875,1.003463745,0.406707764,0.026031494
9285.171875,0.928237915,0.375274658,0.036941528
9294.844875,0.857421875,0.323547363,0.031112671
9304.525875,0.822250366,0.282104492,0.010940552
9314.214875,0.771011353,0.260101318,0.014221191
9323.894875,0.748703003,0.242721558,-0.000808716
9333.576875,0.729995728,0.222930908,-0.030593872
9343.243875,0.741195679,0.218078613,-0.06829834
9352.939875,0.722763062,0.207794189,-0.071746826
9362.620875,0.721817017,0.202362061,-0.082382202
9372.299875,0.740570068,0.196472168,-0.102706909
9381.973875,0.76725769,0.19871521,-0.123077393
9391.664875,0.795974731,0.207778931,-0.145797729
9401.320875,0.786834717,0.216644287,-0.140762329
9411.025875,0.785751343,0.215911865,-0.152572632
9420.708875,0.796615601,0.221801758,-0.158691406
9430.373875,0.77192688,0.237533569,-0.152099609
9440.067875,0.725646973,0.260070801,-0.135681152
9449.732875,0.692489624,0.274276733,-0.116836548
9459.431875,0.68586731,0.287139893,-0.102890015
9469.088875,0.700088501,0.301483154,-0.095413208
9478.774875,0.719100952,0.324523926,-0.09262085
9488.455875,0.746398926,0.354949951,-0.099105835
9498.138875,0.763092041,0.38571167,-0.106689453
9507.819875,0.78024292,0.414306641,-0.116409302
9517.502875,0.798431396,0.4347229,-0.125656128
9527.184875,0.798660278,0.453796387,-0.132659912
9536.859875,0.785919189,0.470291138,-0.131942749
9546.565875,0.780990601,0.474014282,-0.131698608
9556.246875,0.773834229,0.479156494,-0.143676758
9565.902875,0.762695313,0.482299805,-0.144729614
9575.609875,0.754470825,0.49597168,-0.156188965
9585.276875,0.754501343,0.517440796,-0.169204712
9594.963875,0.769546509,0.528945923,-0.182434082
9604.652875,0.79309082,0.532501221,-0.192108154
9614.333875,0.826828003,0.528762817,-0.201873779
9624.016875,0.8671875,0.519973755,-0.212860107
9633.697875,0.902069092,0.501602173,-0.208892822
9643.377875,0.932830811,0.487045288,-0.208511353
9653.060875,0.928527832,0.472625732,-0.199951172
9662.734875,0.94984436,0.455230713,-0.194229126
9672.408875,0.980010986,0.436096191,-0.189651489
9682.107875,1.004379272,0.429824829,-0.179962158
9691.789875,1.032272339,0.428070068,-0.178787231
9701.461875,1.065093994,0.429077148,-0.184799194
9711.147875,1.097061157,0.434509277,-0.193939209
9720.835875,1.11366272,0.438308716,-0.203262329
9730.491875,1.130767822,0.446640015,-0.214935303
9740.201875,1.146606445,0.455413818,-0.222427368
9749.885875,1.139663696,0.466018677,-0.228164673
9759.557875,1.164093018,0.481460571,-0.231369019
9769.247875,1.187728882,0.510986328,-0.22883606
9778.928875,1.209945679,0.55430603,-0.229431152
9788.589875,1.222076416,0.599029541,-0.213424683
9798.291875,1.233734131,0.631057739,-0.191146851
9807.967875,1.235015869,0.6534729,-0.151596069
9817.653875,1.194534302,0.656143188,-0.086502075
9827.336875,1.115585327,0.65953064,0.005081177
9836.989875,1.023956299,0.656509399,0.084732056
9846.699875,0.955673218,0.668502808,0.166030884
9856.381875,0.910797119,0.681411743,0.239105225
9866.058875,0.871643066,0.698440552,0.309371948
9875.744875,0.834854126,0.713851929,0.379013062
9885.425875,0.783569336,0.720458984,0.423141479
9895.098875,0.742874146,0.724960327,0.396957397
9904.786875,0.694351196,0.725265503,0.325897217
9914.463875,0.630493164,0.725616455,0.256713867
9924.141875,0.546295166,0.692337036,0.232391357
9933.829875,0.446578979,0.628417969,0.234436035
9943.510875,0.389373779,0.543807983,0.241073608
9953.191875,0.373916626,0.48059082,0.239395142
9962.872875,0.403549194,0.4402771,0.215881348
9972.549875,0.468154907,0.433654785,0.192764282
9982.232875,0.567611694,0.469146729,0.185272217
9991.912875,0.700210571,0.535308838,0.201934814
10001.57188,0.862579346,0.615966797,0.22203064
10011.27487,1.004714966,0.672393799,0.23866272
10020.95587,1.077407837,0.678955078,0.239364624
10030.61388,1.056640625,0.601257324,0.224334717
10040.31788,0.961242676,0.485778809,0.169418335
10049.97288,0.855911255,0.385574341,0.124130249
10059.67487,0.772491455,0.325515747,0.08026123
10069.35088,0.73210144,0.29699707,0.048721313
10079.01887,0.718856812,0.284500122,0.021331787
10088.69488,0.71937561,0.284744263,-0.012008667
10098.38988,0.734771729,0.289840698,-0.033172607
10108.05988,0.753921509,0.305953979,-0.052490234
10117.75188,0.767074585,0.323043823,-0.063446045
10127.42288,0.764328003,0.351165771,-0.067047119
10137.10388,0.761550903,0.379714966,-0.069274902
10146.78688,0.756652832,0.40637207,-0.071212769
10156.46788,0.75831604,0.427886963,-0.070510864
10166.15088,0.76449585,0.449081421,-0.071594238
10175.84588,0.769271851,0.472351074,-0.07460022
10185.52888,0.771240234,0.489700317,-0.073043823
10195.20587,0.768875122,0.501831055,-0.074035645
10204.89188,0.765350342,0.514373779,-0.073867798
10214.57288,0.750823975,0.515701294,-0.073074341
10224.23688,0.736480713,0.512557983,-0.07081604
10233.93387,0.715499878,0.511520386,-0.064910889
10243.61388,0.695297241,0.506881714,-0.05909729
10253.29588,0.677825928,0.505996704,-0.050689697
10262.97688,0.664581299,0.50630188,-0.040893555
10272.62988,0.651046753,0.502761841,-0.031219482
10282.33687,0.63168335,0.499359131,-0.022033691
10292.01987,0.609817505,0.483444214,-0.012130737
10301.68188,0.581817627,0.471069336,0.000778198
10311.38387,0.565353394,0.455001831,0.011306763
10321.05888,0.560333252,0.438156128,0.014755249
10330.73388,0.574478149,0.429977417,0.01272583
10340.43087,0.598678589,0.429244995,0.010452271
10350.11087,0.634384155,0.433990479,0.006286621
10359.78788,0.668243408,0.445037842,0.004562378
10369.47488,0.696655273,0.452285767,0.010787964
10379.15787,0.71081543,0.456954956,0.023513794
10388.83187,0.716522217,0.460113525,0.045349121
10398.51988,0.712219238,0.455825806,0.066467285
10408.20088,0.708328247,0.45401001,0.089859009
10417.88188,0.698028564,0.453521729,0.114105225
10427.56388,0.691940308,0.456237793,0.136886597
10437.24088,0.686096191,0.45980835,0.163497925
10446.92188,0.672668457,0.463012695,0.193313599
10456.60787,0.650619507,0.462646484,0.221130371
10466.26288,0.623413086,0.451141357,0.246353149
10475.96988,0.596343994,0.441452026,0.248840332
10485.65188,0.57510376,0.42477417,0.237579346
10495.31587,0.553970337,0.406982422,0.221542358
10505.01088,0.526351929,0.385238647,0.217834473
10514.69187,0.496780396,0.36656189,0.230453491
10524.36788,0.476074219,0.35206604,0.25692749
10534.05088,0.481796265,0.361083984,0.299407959
10543.73088,0.507583618,0.388504028,0.34387207
10553.40488,0.54095459,0.442611694,0.394943237
10563.09388,0.604537964,0.502624512,0.42729187
10572.77387,0.6875,0.568984985,0.451202393
10582.45587,0.784011841,0.649429321,0.496994019
10592.13588,0.878631592,0.723937988,0.521575928
10601.80688,1.002838135,0.779846191,0.506011963
10611.49888,1.136566162,0.808319092,0.446304321
10621.17988,1.266204834,0.819717407,0.391204834
10630.84388,1.407577515,0.842712402,0.340286255
10640.54188,1.551818848,0.876068115,0.301544189
10650.19188,1.698165894,0.897705078,0.124145508
10659.89688,1.982543945,0.794113159,-0.465316772
10669.58388,1.892868042,0.682373047,-0.17225647
10679.24488,1.715362549,0.767486572,0.241928101
10688.94588,1.637008667,0.772033691,0.266830444
10698.62387,1.556945801,0.768951416,0.178314209
10708.28287,1.449386597,0.766174316,0.034332275
10717.96888,1.342727661,0.747039795,-0.109298706
10727.67087,1.26914978,0.685180664,-0.199493408
10737.34888,1.198043823,0.597625732,-0.234649658
10747.02487,1.102203369,0.533233643,-0.252624512
10756.69988,1.015380859,0.498184204,-0.247406006
10766.37288,0.953765869,0.464157104,-0.239639282
10776.07087,0.908721924,0.440383911,-0.240570068
10785.74788,0.848205566,0.418991089,-0.228942871
10795.41988,0.79397583,0.401275635,-0.244110107
10805.11088,0.778701782,0.398468018,-0.247558594
10814.80888,0.794799805,0.388122559,-0.234237671
10824.48187,0.796707153,0.380264282,-0.206207275
10834.17388,0.765701294,0.382019043,-0.174804688
10843.85588,0.738128662,0.388061523,-0.150848389
10853.53087,0.712539673,0.394866943,-0.124908447
10863.22387,0.697906494,0.391174316,-0.097976685
10872.90587,0.685379028,0.389907837,-0.080978394
10882.58787,0.683532715,0.383377075,-0.070114136
10892.26987,0.693115234,0.382568359,-0.07131958
10901.95387,0.700790405,0.387939453,-0.068435669
10911.63487,0.705551147,0.402252197,-0.067276001
10921.31687,0.709228516,0.421081543,-0.06829834
10930.98488,0.718048096,0.44380188,-0.058822632
10940.68287,0.727737427,0.456329346,-0.047775269
10950.36588,0.728546143,0.466033936,-0.031021118
10960.03687,0.727355957,0.464645386,-0.014022827
10969.73388,0.721160889,0.459915161,0.005050659
10979.41788,0.713150024,0.455535889,0.024291992
10989.08988,0.697402954,0.450897217,0.043411255
10998.78487,0.679733276,0.436309814,0.064758301
11008.46887,0.654647827,0.420822144,0.088302612
11018.14488,0.628311157,0.403549194,0.110015869
11027.83588,0.60093689,0.382247925,0.134231567
11037.51988,0.577972412,0.359512329,0.154541016
11047.20288,0.556640625,0.341156006,0.187179565
11056.88588,0.54234314,0.316467285,0.213043213
11066.56788,0.533966064,0.297225952,0.237548828
11076.25088,0.527923584,0.284317017,0.26121521
11085.93588,0.52394104,0.28024292,0.272705078
11095.61788,0.532806396,0.278869629,0.278579712
11105.30088,0.540222168,0.277481079,0.274383545
11114.98288,0.537979126,0.267868042,0.273376465
11124.64988,0.525756836,0.265899658,0.277053833
11134.34887,0.511322021,0.255615234,0.285095215
11144.03187,0.490753174,0.243942261,0.302459717
11153.70588,0.479812622,0.232269287,0.323547363
11163.39888,0.469696045,0.227264404,0.344741821
11173.08087,0.478500366,0.225067139,0.372558594
11182.75488,0.503143311,0.233947754,0.401809692
11192.38087,0.559265137,0.247650146,0.42024231
11202.06187,0.653076172,0.289459229,0.441146851
11211.73588,0.846801758,0.381973267,0.396209717
11221.42888,1.32661438,0.565536499,0.255706787
11231.10388,1.837036133,0.718475342,0.200561523
11240.79488,2.001296997,0.812515259,0.23298645
11250.47688,1.771957397,0.793426514,0.197967529
11260.13088,1.411102295,0.712005615,0.086929321
11269.83987,1.120697021,0.662445068,-0.017410278
11279.52187,1.050384521,0.678710938,-0.065979004
11289.20387,1.34753418,0.802124023,-0.176254272
11298.88687,1.945053101,1.092285156,-0.364105225
11308.56988,2.347808838,1.27255249,-0.386032104
11318.23588,2.204742432,1.234741211,-0.248825073
11327.92187,1.845397949,1.010025024,-0.175048828
11337.59588,1.57081604,0.755081177,-0.230697632
11347.28988,1.335586548,0.51423645,-0.337310791
11356.96388,1.118453979,0.3359375,-0.435180664
11366.66988,0.975158691,0.237960815,-0.543533325
11376.33788,0.907867432,0.216033936,-0.655532837
11386.03188,0.885223389,0.266937256,-0.753311157
11395.71288,0.905197144,0.377746582,-0.777832031
11405.40087,0.832580566,0.508499146,-0.763961792
11415.08287,0.403335571,0.615264893,-0.990859985
11424.75687,0.066955566,0.567764282,-1.51373291
11434.45488,0.026763916,0.393188477,-1.783233643
11444.11887,0.215957642,0.2290802,-1.423171997
11453.80387,0.362716675,0.146331787,-0.963592529
11463.48687,0.432540894,0.125045776,-0.633255005
11473.16988,0.444412231,0.18460083,-0.444824219
11482.84788,0.441055298,0.262619019,-0.369384766
11492.55287,0.45980835,0.313232422,-0.349761963
11502.23587,0.503601074,0.345428467,-0.38168335
11511.90088,0.546295166,0.375579834,-0.401031494
11521.60187,0.588226318,0.378555298,-0.407592773
11531.28387,0.628082275,0.347702026,-0.409851074
11540.95188,0.637252808,0.289123535,-0.390090942
11550.64787,0.618255615,0.249359131,-0.363510132
11560.32987,0.603302002,0.240524292,-0.329727173
11570.01588,0.599090576,0.240921021,-0.315032959
11579.69788,0.61756897,0.255950928,-0.331832886
11589.35487,0.654769897,0.26600647,-0.358016968
11599.06488,0.699172974,0.265014648,-0.399002075
11608.74788,0.741607666,0.264907837,-0.443130493
11618.40688,0.768371582,0.270523071,-0.486877441
11628.11388,0.777572632,0.277313232,-0.522171021
11637.79188,0.77923584,0.276092529,-0.55078125
11647.47588,0.776138306,0.27192688,-0.575424194
11657.16287,0.774902344,0.265716553,-0.601593018
11666.84587,0.772781372,0.262863159,-0.616821289
11676.51787,0.766342163,0.264907837,-0.622909546
11686.21087,0.757354736,0.26776123,-0.615783691
11695.89487,0.749801636,0.274429321,-0.60585022
11705.57088,0.750366211,0.287780762,-0.59928894
11715.26088,0.751373291,0.304870605,-0.602127075
11724.94488,0.747787476,0.320800781,-0.624359131
11734.62788,0.741729736,0.327545166,-0.641036987
11744.31288,0.726043701,0.332901001,-0.651321411
11753.99687,0.696273804,0.340911865,-0.656082153
11763.68087,0.67666626,0.348846436,-0.654815674
11773.36487,0.697418213,0.344985962,-0.65776062
11783.01888,0.750671387,0.338821411,-0.648498535
11792.73188,0.809585571,0.340133667,-0.633773804
11802.41488,0.859207153,0.359542847,-0.617767334
11812.07187,0.889083862,0.37361145,-0.588027954
11821.78088,0.933914185,0.379211426,-0.563247681
11831.46388,0.989837646,0.391830444,-0.544754028
11841.13787,1.05960083,0.427093506,-0.548950195
11850.82988,1.13659668,0.48348999,-0.569015503
11860.51088,1.218551636,0.576889038,-0.602600098
11870.19488,1.294815063,0.666793823,-0.610961914
11879.87787,1.333068848,0.716186523,-0.610031128
11889.55588,1.341125488,0.717529297,-0.596252441
11899.24487,1.329971313,0.689224243,-0.56262207
11908.92787,1.306793213,0.642181396,-0.513778687
11918.60887,1.268753052,0.602676392,-0.471694946
11928.29287,1.18927002,0.554122925,-0.441680908
11937.97487,1.080718994,0.49446106,-0.403778076
11947.63287,0.963775635,0.428771973,-0.345367432
11957.34088,0.851394653,0.370407104,-0.289230347
11967.02388,0.756103516,0.325790405,-0.233978271
11976.69187,0.687362671,0.29750061,-0.193878174
11986.37287,0.651748657,0.284118652,-0.150680542
11996.06288,0.650680542,0.285217285,-0.119247437
12005.75087,0.676376343,0.305725098,-0.091156006
12015.40987,0.724746704,0.341598511,-0.069503784
12025.11288,0.795761108,0.385238647,-0.059555054
12034.80388,0.878555298,0.421279907,-0.051300049
12044.48288,0.952392578,0.451446533,-0.043487549
12054.16488,1.009506226,0.476730347,-0.036392212
12063.83088,1.046234131,0.477294922,-0.025787354
12073.51288,1.043411255,0.454498291,-0.025772095
12083.18887,1.010559082,0.421020508,-0.026306152
12092.87688,0.970108032,0.374252319,-0.031433105
12102.55888,0.934570313,0.331665039,-0.039154053
12112.24288,0.912658691,0.298919678,-0.038345337
12121.93787,0.906494141,0.276092529,-0.052307129
12131.62087,0.903808594,0.260284424,-0.062164307
12141.29488,0.901535034,0.245666504,-0.068283081
12150.98487,0.912796021,0.226608276,-0.091873169
12160.66687,0.927734375,0.205993652,-0.112808228
12170.34088,0.935165405,0.186965942,-0.13571167
12180.02888,0.952301025,0.168899536,-0.16494751
12189.71188,0.954360962,0.157562256,-0.177429199
12199.36788,0.949493408,0.152236938,-0.191009521
12209.07588,0.94090271,0.143325806,-0.204452515
12218.75888,0.901947021,0.153900146,-0.209564209
12228.44088,0.850570679,0.158569336,-0.199966431
12238.12288,0.800415039,0.16784668,-0.198959351
12247.80188,0.765319824,0.177612305,-0.203414917
12257.48688,0.732925415,0.193008423,-0.214904785
12267.16988,0.711975098,0.211425781,-0.226516724
12276.82487,0.705200195,0.238388062,-0.236312866
12286.53687,0.694030762,0.27545166,-0.255889893
12296.21887,0.690368652,0.319381714,-0.276367188
12305.88488,0.677642822,0.368118286,-0.29045105
12315.58587,0.627304077,0.417068481,-0.26260376
12325.26787,0.623123169,0.434188843,-0.251937866
12334.94388,0.678390503,0.414993286,-0.26260376
12344.63388,0.739959717,0.389587402,-0.272277832
12354.31788,0.796966553,0.372787476,-0.269699097
12364.00188,0.844177246,0.375030518,-0.282501221
12373.68588,0.883743286,0.37840271,-0.291976929
12383.36988,0.903396606,0.389053345,-0.293060303
12393.05587,0.911193848,0.396377563,-0.292678833
12402.73787,0.888198853,0.403427124,-0.27381897
12412.41987,0.871139526,0.399688721,-0.238327026
12422.10488,0.882659912,0.389434814,-0.213699341
12431.78788,0.910095215,0.378662109,-0.200057983
12441.44387,0.956130981,0.378112793,-0.197113037
12451.15088,0.998275757,0.377929688,-0.201812744
12460.83888,1.021759033,0.382080078,-0.207458496
12470.51487,1.042098999,0.378677368,-0.213592529
12480.20587,1.073318481,0.372955322,-0.217834473
12489.89088,1.0962677,0.371429443,-0.217575073
12499.57187,1.127441406,0.380996704,-0.219070435
12509.25387,1.164306641,0.399169922,-0.21875
12518.93687,1.184036255,0.429702759,-0.212036133
12528.62088,1.203735352,0.455459595,-0.208465576
12538.29887,1.215148926,0.472000122,-0.192184448
12547.96988,1.206832886,0.495635986,-0.173431396
12557.66888,1.200668335,0.50831604,-0.144821167
12567.34288,1.183059692,0.51109314,-0.104492188
12577.02488,1.161483765,0.512374878,-0.066085815
12586.70488,1.138626099,0.520523071,-0.031112671
12596.39487,1.130767822,0.536254883,0.006454468
12606.07488,1.140823364,0.553833008,0.031585693
12615.74787,1.146957397,0.570541382,0.057052612
12625.43087,1.12713623,0.583862305,0.081375122
12635.10788,1.06829834,0.587203979,0.105834961
12644.79788,0.963668823,0.573379517,0.132064819
12654.47588,0.847549438,0.532836914,0.131515503
12664.16388,0.747146606,0.483947754,0.120437622
12673.86188,0.670669556,0.446182251,0.104736328
12683.54388,0.626220703,0.425994873,0.088577271
12693.22588,0.613815308,0.424697876,0.071426392
12702.90788,0.625411987,0.434524536,0.047714233
12712.56888,0.663833618,0.459991455,0.033950806
12722.27188,0.737167358,0.489456177,0.035552979
12731.95288,0.817123413,0.52394104,0.067611694
12741.63688,0.874786377,0.540847778,0.098815918
12751.31788,0.922073364,0.538909912,0.122451782
12760.99988,0.940292358,0.522766113,0.143585205
12770.67288,0.925827026,0.505187988,0.157836914
12780.36588,0.889587402,0.488449097,0.16619873
12790.04788,0.845443726,0.47102356,0.149307251
12799.72287,0.812103271,0.451553345,0.129104614
12809.41188,0.787246704,0.437011719,0.105758667
12819.09588,0.778701782,0.427474976,0.086380005
12828.77788,0.77734375,0.42288208,0.071777344
12838.45988,0.779067993,0.416412354,0.052825928
12848.14388,0.783798218,0.40965271,0.032394409
12857.81887,0.791030884,0.404373169,0.017211914
12867.50688,0.793533325,0.398162842,-0.003631592
12877.18988,0.786865234,0.387878418,-0.023529053
12886.87188,0.776199341,0.376602173,-0.042953491
12896.55388,0.762649536,0.368438721,-0.057388306
12906.21787,0.752838135,0.357620239,-0.066589355
12915.85588,0.745864868,0.350296021,-0.076446533
12925.53688,0.742416382,0.343597412,-0.092819214
12935.19388,0.747802734,0.336135864,-0.108215332
12944.90088,0.754013062,0.32951355,-0.117126465
12954.58188,0.759933472,0.322067261,-0.131713867
12964.24787,0.761795044,0.314163208,-0.136550903
12973.94688,0.767089844,0.303375244,-0.147583008
12983.62688,0.770812988,0.298950195,-0.154891968
12993.28888,0.782104492,0.286117554,-0.167572021
13002.99288,0.797042847,0.278152466,-0.17817688
13012.64787,0.816757202,0.27507019,-0.190536499
13022.35588,0.839797974,0.288650513,-0.193664551
13032.03387,0.860198975,0.306930542,-0.197967529
13041.72188,0.872070313,0.333404541,-0.194656372
13051.40588,0.865951538,0.360046387,-0.188964844
13061.08688,0.85333252,0.381637573,-0.183105469
13070.77088,0.823486328,0.395904541,-0.176040649
13080.45488,0.795303345,0.408630371,-0.163024902
13090.13788,0.769058228,0.410339355,-0.141998291
13099.80288,0.727279663,0.401535034,-0.109771729
13109.47988,0.693283081,0.393493652,-0.081359863
13119.18587,0.65802002,0.392700195,-0.062896729
13128.84088,0.642868042,0.396209717,-0.042205811
13138.55087,0.639068604,0.407012939,-0.027252197
13148.23287,0.647277832,0.423202515,-0.016357422
13157.90788,0.655548096,0.438156128,0.000793457
13167.59787,0.658905029,0.455581665,0.022247314
13177.28087,0.656112671,0.467926025,0.044906616
13186.96387,0.642364502,0.474716187,0.067825317
13196.64587,0.627868652,0.474685669,0.092910767
13206.32787,0.612640381,0.472015381,0.110717773
13216.01087,0.6015625,0.460540771,0.127807617
13225.69387,0.595504761,0.445632935,0.140258789
13235.35888,0.598220825,0.431427002,0.143188477
13245.05988,0.607391357,0.41708374,0.143508911
13254.74188,0.613876343,0.417755127,0.141845703
13264.41388,0.615570068,0.419906616,0.145004272
13274.09188,0.600799561,0.418609619,0.149993896
13283.78888,0.571456909,0.410217285,0.164154053
13293.44887,0.537445068,0.392608643,0.180618286
13303.13588,0.510879517,0.370361328,0.194488525
13312.82287,0.482696533,0.356582642,0.229293823
13322.45287,0.46232605,0.353057861,0.270996094
13332.11988,0.461334229,0.351455688,0.318634033
13341.82088,0.478744507,0.359481812,0.360809326
13351.49388,0.517593384,0.381958008,0.388168335
13361.17288,0.578033447,0.416427612,0.415786743
13370.84988,0.652648926,0.453689575,0.418151855
13380.53088,0.731613159,0.492797852,0.43057251
13390.23088,0.809951782,0.539672852,0.449203491
13399.91187,0.887710571,0.586883545,0.48197937
13409.59488,0.963424683,0.638809204,0.517105103
13419.27487,1.050338745,0.676223755,0.540496826
13428.95687,1.139129639,0.705108643,0.543289185
13438.62288,1.239257813,0.729675293,0.533187866
13448.32087,1.387466431,0.761291504,0.527954102
13457.99688,1.595687866,0.793304443,0.544021606
13467.68587,1.815689087,0.836502075,0.552612305
13477.36588,1.99446106,0.855010986,0.515823364
13487.02688,2.045150757,0.821914673,0.402603149
13496.73088,1.98298645,0.747467041,0.247970581
13506.41188,1.798934937,0.632247925,0.085540771
13516.06888,1.585128784,0.511962891,-0.054016113
13525.77588,1.397140503,0.457061768,-0.134735107
13535.45788,1.288131714,0.413528442,-0.196166992
13545.12688,1.26449585,0.3671875,-0.249511719
13554.82288,1.271438599,0.354400635,-0.272216797
13564.50188,1.284469604,0.363800049,-0.278564453
13574.18988,1.257217407,0.375076294,-0.269104004
13583.87288,1.187484741,0.371124268,-0.266525269
13593.55587,1.097900391,0.347457886,-0.266036987
13603.23887,0.993545532,0.287475586,-0.279846191
13612.92187,0.861618042,0.25869751,-0.286773682
13622.57888,0.821731567,0.271987915,-0.322128296
13632.28988,0.868087769,0.305282593,-0.347106934
13641.96987,0.89201355,0.343292236,-0.331100464
13651.63888,0.865814209,0.369735718,-0.314834595
13661.33988,0.828125,0.375900269,-0.274993896
13671.02388,0.764831543,0.38923645,-0.220581055
13680.69687,0.710388184,0.409301758,-0.174713135
13690.38888,0.688156128,0.433120728,-0.145797729
13700.07287,0.690750122,0.447372437,-0.129440308
13709.75487,0.718154907,0.441894531,-0.120727539
13719.43787,0.735107422,0.428466797,-0.103591919
13729.12187,0.737472534,0.413711548,-0.084609985
13738.80287,0.729919434,0.393310547,-0.071762085
13748.48587,0.716430664,0.382385254,-0.059814453
13758.16887,0.709197998,0.374816895,-0.047729492
13767.82887,0.708847046,0.367416382,-0.035858154
13777.53488,0.706726074,0.364685059,-0.028213501
13787.19788,0.706985474,0.362579346,-0.019012451
13796.88388,0.704025269,0.360336304,-0.00730896
13806.55787,0.704421997,0.352981567,0.007278442
13816.24987,0.708816528,0.345901489,0.027603149
13825.85563,0.711105347,0.338058472,0.05166626
13835.55963,0.721069336,0.32723999,0.077102661
13845.22762,0.725891113,0.321105957,0.103820801
13854.92463,0.742095947,0.322738647,0.155883789
13864.60563,0.761581421,0.323638916,0.214035034
13874.28762,0.774551392,0.311828613,0.267807007
13883.96962,0.774551392,0.303253174,0.323379517
13893.63463,0.762481689,0.285491943,0.370819092
13903.30863,0.74067688,0.264083862,0.396591187
13913.00963,0.713668823,0.239257813,0.393173218
13922.68762,0.673721313,0.226547241,0.364578247
13932.36163,0.633224487,0.221984863,0.323562622
13942.04262,0.587677002,0.223388672,0.290557861
13951.74063,0.535125732,0.224441528,0.285324097
13961.40963,0.488143921,0.215393066,0.312469482
13971.08862,0.460479736,0.213027954,0.354156494
13980.76263,0.446212769,0.202651978,0.40032959
13990.45763,0.426528931,0.193618774,0.431762695
14000.14163,0.406402588,0.185668945,0.447814941
14009.82263,0.396026611,0.18321228,0.450912476
14019.52262,0.404022217,0.186080933,0.448638916
14029.20362,0.443374634,0.198669434,0.453109741
14038.88562,0.515304565,0.232131958,0.473052979
14048.54163,0.613922119,0.301757813,0.495162964
14058.25162,0.811599731,0.4165802,0.525146484
14067.93362,1.308807373,0.598876953,0.46786499
14077.61562,1.915130615,0.825256348,0.335403442
14087.26863,2.268753052,0.965240479,0.249710083
14096.97663,2.255233765,0.98588562,0.108169556
14106.62862,2.011032104,0.953109741,-0.060913086
14116.32162,1.838806152,0.975448608,-0.173522949
14125.99663,1.838653564,1.067153931,-0.267883301
14135.70063,1.891891479,1.139526367,-0.285598755
14145.37162,1.788238525,1.093780518,-0.233688354
14155.06162,1.574996948,0.930236816,-0.191986084
14164.74163,1.417236328,0.71711731,-0.263168335
14174.41762,1.32875061,0.446426392,-0.388809204
14184.10563,1.217468262,0.18699646,-0.54196167
14193.78663,1.072402954,0.050445557,-0.633255005
14203.46763,0.973403931,0.035766602,-0.667755127
14213.14863,0.956542969,0.048141479,-0.706558228
14222.82962,0.90071106,0.061767578,-0.756347656
14232.51162,0.789337158,0.107345581,-0.831436157
14242.19362,0.700958252,0.211746216,-0.94581604
14251.84362,0.444442749,0.329879761,-1.095962524
14261.55363,0.20223999,0.349731445,-1.38117981
14271.23463,0.104171753,0.23034668,-1.33392334
14280.88863,0.144485474,0.095046997,-1.005020142
14290.59462,0.19934082,0.069320679,-0.662185669
14300.27762,0.289886475,0.061340332,-0.473388672
14309.95063,0.348556519,0.069976807,-0.383880615
14319.63963,0.388626099,0.093597412,-0.365783691
14329.32163,0.446014404,0.115142822,-0.403213501
14339.00363,0.516036987,0.159606934,-0.476593018
14348.68563,0.582473755,0.246047974,-0.537750244
14358.35663,0.634246826,0.323638916,-0.575958252
14368.04963,0.676101685,0.37890625,-0.579681396
14377.70462,0.688995361,0.409729004,-0.531814575
14387.40862,0.689300537,0.422973633,-0.462081909
14397.09563,0.69972229,0.414108276,-0.417892456
14406.77763,0.733200073,0.394073486,-0.397537231
14416.43262,0.772903442,0.380691528,-0.386398315
14426.14263,0.815597534,0.361785889,-0.392883301
14435.82563,0.859542847,0.34487915,-0.431716919
14445.48463,0.888504028,0.321060181,-0.483673096
14455.18863,0.884216309,0.297683716,-0.551589966
14464.87163,0.860061646,0.280181885,-0.61076355
14474.54662,0.82321167,0.269805908,-0.642364502
14484.22863,0.782913208,0.25012207,-0.649154663
14493.89563,0.74130249,0.228912354,-0.649856567
14503.59963,0.707855225,0.206283569,-0.648376465
14513.26363,0.674926758,0.189086914,-0.661880493
14522.95763,0.644134521,0.184158325,-0.673034668
14532.62363,0.621658325,0.188812256,-0.678726196
14542.30663,0.606262207,0.201477051,-0.690597534
14551.99462,0.595718384,0.220413208,-0.707809448
14561.67163,0.596160889,0.236755371,-0.726043701
14571.35263,0.594863892,0.252059937,-0.729415894
14581.04462,0.607391357,0.253372192,-0.715820313
14591.04463,0.631072998,0.250411987,-0.691696167
14600.67063,0.663223267,0.253921509,-0.666824341
14610.33063,0.686553955,0.261459351,-0.646942139
14620.02663,0.719390869,0.269973755,-0.635848999
14629.69363,0.753952026,0.285705566,-0.630950928
14639.39763,0.792068481,0.297119141,-0.625808716
14649.01763,0.824081421,0.31640625,-0.625152588
14658.69963,0.85609436,0.33605957,-0.643051147
14668.38063,0.877670288,0.354995728,-0.655960083
14678.03663,0.884963989,0.371063232,-0.658096313
14687.73863,0.873733521,0.383361816,-0.658203125
14697.42562,0.830123901,0.396408081,-0.646270752
14707.09963,0.782928467,0.405288696,-0.645629883
14716.79163,0.771728516,0.412216187,-0.662994385
14726.44763,0.792251587,0.423080444,-0.646743774
14736.12463,0.856140137,0.434249878,-0.633041382
14745.82562,0.941848755,0.451644897,-0.601165771
14755.49463,1.021377563,0.47454834,-0.594070435
14765.19863,1.111587524,0.492431641,-0.611038208
14774.87963,1.189239502,0.532546997,-0.604248047
14784.54763,1.253417969,0.576400757,-0.602981567
14794.22963,1.290252686,0.635467529,-0.585021973
14803.91363,1.305236816,0.683792114,-0.564117432
14813.59663,1.269226074,0.70664978,-0.540756226
14823.27963,1.18788147,0.698364258,-0.508590698
14832.96363,1.092544556,0.639755249,-0.44921875
14842.64762,0.98097229,0.550079346,-0.371932983
14852.34663,0.884185791,0.466842651,-0.300888062
14862.02963,0.80456543,0.396987915,-0.241378784
14871.71063,0.76222229,0.346679688,-0.20350647
14881.39563,0.75213623,0.30355835,-0.174316406
14891.07963,0.775558472,0.282608032,-0.147644043
14900.74663,0.829650879,0.274078369,-0.120269775
14910.44762,0.896743774,0.277984619,-0.097076416
14920.13062,0.964920044,0.296096802,-0.076965332
14929.80763,1.013870239,0.314529419,-0.061920166
14939.49863,1.033981323,0.348022461,-0.057662964
14949.18263,1.038894653,0.369445801,-0.06187439
14958.86663,1.016815186,0.374282837,-0.069885254
14968.54463,0.980361938,0.360137939,-0.05607605
14978.21763,0.93170166,0.344024658,-0.034515381
14987.91863,0.884429932,0.330581665,0.000213623
14997.59163,0.848388672,0.309890747,0.034378052
15007.27062,0.812026978,0.296417236,0.040756226
15016.96963,0.783111572,0.287582397,0.047241211
15026.65263,0.757583618,0.274169922,0.052536011
15036.30862,0.718002319,0.253967285,0.056335449
15045.99763,0.69493103,0.237716675,0.013763428
15055.70362,0.657470703,0.221878052,-0.001800537
15065.37863,0.677810669,0.21244812,-0.049057007
15075.07263,0.746887207,0.220214844,-0.085998535
15084.75763,0.778045654,0.225952148,-0.090499878
15094.43563,0.839065552,0.243515015,-0.109573364
15104.12462,0.90914917,0.243164063,-0.133834839
15113.80862,0.97076416,0.249588013,-0.160675049
15123.49162,0.98916626,0.245956421,-0.179367065
15133.17462,0.977005005,0.235794067,-0.186248779
15142.85863,0.945205688,0.240341187,-0.186737061
15152.54063,0.87789917,0.258605957,-0.164672852
15162.22563,0.814163208,0.279876709,-0.139724731
15171.88162,0.780548096,0.289611816,-0.120864868
15181.59363,0.767333984,0.298339844,-0.104904175
15191.27662,0.765106201,0.309799194,-0.093078613
15200.93263,0.762435913,0.320846558,-0.089981079
15210.64362,0.752548218,0.338973999,-0.097351074
15220.32662,0.746002197,0.357559204,-0.11038208
15230.00363,0.746154785,0.373260498,-0.127029419
15239.69463,0.754638672,0.388244629,-0.137664795
15249.36663,0.765625,0.400299072,-0.148208618
15259.06063,0.77104187,0.410629272,-0.160293579
15268.74363,0.777130127,0.422195435,-0.166748047
15278.41862,0.781097412,0.43409729,-0.184310913
15288.11062,0.787765503,0.447998047,-0.187911987
15297.76763,0.795608521,0.457839966,-0.196746826
15307.45963,0.81060791,0.464401245,-0.202926636
15317.15862,0.838775635,0.471694946,-0.202545166
15326.84363,0.874130249,0.477630615,-0.204559326
15336.52462,0.913742065,0.483963013,-0.203659058
15346.19863,0.953765869,0.485015869,-0.214172363
15355.89563,0.989822388,0.491516113,-0.216156006
15365.57162,1.022094727,0.492752075,-0.216384888
15375.26163,1.034011841,0.491668701,-0.220367432
15384.94463,1.064025879,0.487075806,-0.225448608
15394.62263,1.104049683,0.485870361,-0.230178833
15404.31162,1.14704895,0.494522095,-0.231872559
15413.99663,1.188079834,0.513442993,-0.233139038
15423.67863,1.208511353,0.539810181,-0.234451294
15433.36263,1.217208862,0.564163208,-0.230575562
15443.04563,1.227584839,0.577545166,-0.231704712
15452.72763,1.214355469,0.589630127,-0.224472046
15462.41063,1.225509644,0.60055542,-0.219039917
15472.08363,1.249511719,0.608673096,-0.203079224
15481.77663,1.25881958,0.618408203,-0.180297852
15491.45963,1.253128052,0.625793457,-0.152145386
15501.13263,1.226028442,0.625595093,-0.121536255
15510.76262,1.204193115,0.620666504,-0.095611572
15520.44662,1.20501709,0.617675781,-0.06880188
15530.11163,1.203811646,0.616699219,-0.042709351
15539.81663,1.1875,0.630783081,0.000808716
15549.49262,1.131942749,0.652206421,0.050582886
15559.16462,1.050125122,0.650299072,0.100250244
15568.86463,0.947967529,0.619766235,0.152099609
15578.54763,0.843734741,0.588348389,0.201965332
15588.21963,0.748901367,0.560333252,0.246261597
15597.91263,0.67225647,0.523010254,0.266525269
15607.59463,0.622711182,0.501113892,0.259033203
15617.26962,0.597976685,0.499908447,0.233459473
15626.95963,0.594039917,0.515151978,0.198348999
15636.64262,0.615158081,0.535934448,0.168807983
15646.32463,0.657104492,0.556777954,0.162734985
15656.00663,0.703170776,0.572387695,0.173126221
15665.67162,0.732894897,0.575531006,0.221450806
15675.37063,0.740509033,0.571212769,0.277893066
15685.05063,0.746780396,0.563903809,0.31690979
15694.72363,0.751876831,0.558776855,0.328979492
15704.41363,0.754211426,0.544265747,0.307159424
15714.09463,0.756546021,0.519973755,0.260299683
15723.74763,0.755477905,0.483840942,0.200698853
15733.45662,0.743652344,0.445495605,0.140945435
15743.13962,0.726821899,0.409179688,0.091339111
15752.81663,0.712295532,0.37739563,0.051055908
15762.43763,0.691970825,0.344955444,0.027023315
15772.11863,0.668746948,0.320648193,0.005966187
15781.77362,0.650497437,0.304946899,-0.00944519
15791.48463,0.65184021,0.311645508,0.003433228
15801.16363,0.651550293,0.319412231,0.00819397
15810.83763,0.66178894,0.325317383,0.0131073
15820.52963,0.676254272,0.335327148,0.007888794
15830.21163,0.683013916,0.348693848,-0.008453369
15839.89363,0.694519043,0.363418579,-0.034942627
15849.57463,0.70451355,0.372253418,-0.059997559
15859.25663,0.712753296,0.382156372,-0.080474854
15868.93663,0.724273682,0.392669678,-0.108261108
15878.61762,0.736221313,0.410644531,-0.128860474
15888.29862,0.749252319,0.426940918,-0.137390137
15897.97963,0.756622314,0.445465088,-0.13710022
15907.66163,0.758895874,0.460769653,-0.13293457
15917.33363,0.754302979,0.468704224,-0.117248535
15927.01662,0.746994019,0.479522705,-0.107025146
15936.70563,0.738296509,0.489593506,-0.096282959
15946.35863,0.726379395,0.49331665,-0.087966919
15956.06063,0.710021973,0.494857788,-0.07649231
15965.74762,0.694595337,0.49786377,-0.071258545
15975.41563,0.686157227,0.497131348,-0.066650391
15985.10963,0.688796997,0.498840332,-0.063018799
15994.78663,0.698364258,0.503860474,-0.060638428
16004.46063,0.713363647,0.507522583,-0.056427002
16014.15263,0.727218628,0.508468628,-0.056167603
16023.80962,0.736129761,0.503067017,-0.054336548
16033.51463,0.735214233,0.494903564,-0.04524231
16043.19462,0.734115601,0.48538208,-0.033172607
16052.86163,0.726226807,0.476974487,-0.020309448
16062.55862,0.711883545,0.463729858,-0.002349854
16072.23863,0.683776855,0.44644165,0.012466431
16081.91362,0.665420532,0.428924561,0.029388428
16091.58863,0.66494751,0.410507202,0.037979126
16101.27762,0.670883179,0.401824951,0.043502808
16110.93762,0.677688599,0.394546509,0.045578003
16120.62663,0.677947998,0.389068604,0.047271729
16130.29963,0.682876587,0.385253906,0.054214478
16139.98363,0.67868042,0.378753662,0.057693481
16149.67463,0.672592163,0.375747681,0.070007324
16159.36763,0.668075562,0.37600708,0.089370728
16169.03863,0.668380737,0.381072998,0.116989136
16178.72263,0.667053223,0.388473511,0.147354126
16188.41962,0.669219971,0.398086548,0.170394897
16198.10162,0.677139282,0.407913208,0.192459106
16207.76863,0.668502808,0.412918091,0.220016479
16217.46063,0.651473999,0.410415649,0.233413696
16227.14663,0.638458252,0.404098511,0.226364136
16236.82863,0.625839233,0.399642944,0.215103149
16246.49563,0.613327026,0.408905029,0.195571899
16256.19163,0.597305298,0.417022705,0.197891235
16265.87363,0.568634033,0.427703857,0.227645874
16275.52962,0.542144775,0.432662964,0.27255249
16285.23362,0.518005371,0.433135986,0.323699951
16294.91863,0.496246338,0.442428589,0.372390747
16304.60163,0.490890503,0.444442749,0.413635254
16314.28363,0.512695313,0.45501709,0.427154541
16323.96763,0.545196533,0.477340698,0.447540283
16333.64362,0.565643311,0.504943848,0.466186523
16343.33063,0.586288452,0.543716431,0.504364014
16353.01263,0.648132324,0.588592529,0.526824951
16362.69363,0.756210327,0.631072998,0.518051147
16372.37362,0.911178589,0.668304443,0.506103516
16382.05462,1.09387207,0.72076416,0.51121521
16391.73762,1.294448853,0.787780762,0.553649902
16401.41763,1.509262085,0.855224609,0.596969604
16411.08262,1.758148193,0.939086914,0.623733521
16420.78163,1.978057861,0.998275757,0.621414185
16430.46263,2.113632202,0.99949646,0.558151245
16440.12862,2.102157593,0.905456543,0.424331665
16449.82463,1.959213257,0.757843018,0.254135132
16459.50362,1.770874023,0.596542358,0.071411133
16469.18363,1.611419678,0.481903076,-0.086471558
16478.86563,1.550338745,0.432769775,-0.200317383
16488.54663,1.499954224,0.407028198,-0.272293091
16498.22463,1.439682007,0.365661621,-0.338912964
16507.90362,1.375854492,0.379043579,-0.353652954
16517.58263,1.32623291,0.41104126,-0.317581177
16527.26063,1.249298096,0.425247192,-0.271575928
16536.93763,1.147979736,0.42489624,-0.240737915
16546.60563,1.019622803,0.424972534,-0.229003906
16556.30562,0.905349731,0.424133301,-0.230636597
16565.98662,0.820861816,0.428100586,-0.257904053
16575.65862,0.750335693,0.432449341,-0.275650024
16585.34963,0.713516235,0.431991577,-0.288635254
16595.03063,0.685409546,0.435501099,-0.293411255
16604.70562,0.661453247,0.429199219,-0.279571533
16614.38463,0.632247925,0.430923462,-0.24369812
16624.07663,0.604156494,0.43157959,-0.210037231
16633.75963,0.595977783,0.447113037,-0.175689697
16643.44163,0.60369873,0.458892822,-0.147583008
16653.10762,0.622497559,0.472564697,-0.119064331
16662.80263,0.647888184,0.471069336,-0.096893311
16672.48462,0.665878296,0.467636108,-0.072494507
16682.16462,0.675964355,0.452270508,-0.054214478
16691.85563,0.677764893,0.436538696,-0.034469604
16701.50862,0.680999756,0.419387817,-0.015609741
16711.21663,0.69708252,0.40625,-0.008132935
16720.89063,0.721282959,0.394683838,0.003829956
16730.57063,0.745330811,0.386016846,0.016494751
16740.27162,0.758682251,0.379379272,0.027816772
16749.94563,0.753952026,0.372848511,0.051773071
16759.61763,0.744415283,0.35484314,0.083648682
16769.30363,0.711730957,0.339233398,0.114959717
16778.98862,0.6769104,0.326797485,0.133392334
16788.67162,0.657974243,0.312896729,0.162826538
16798.35663,0.651290894,0.289276123,0.20451355
16808.03963,0.644073486,0.268600464,0.246612549
16817.72363,0.648345947,0.250976563,0.302093506
16827.42162,0.649612427,0.238800049,0.328979492
16837.10262,0.645202637,0.220169067,0.324279785
16846.76362,0.628295898,0.193405151,0.303268433
16856.46762,0.613189697,0.179718018,0.289352417
16866.14863,0.590744019,0.169570923,0.271530151
16875.82763,0.560546875,0.149887085,0.29385376
16885.51163,0.538375854,0.109893799,0.328979492
16895.19363,0.513946533,0.090682983,0.389770508
16904.86663,0.480453491,0.073318481,0.43977356
16914.55763,0.459472656,0.071395874,0.46661377
16924.23863,0.444229126,0.058380127,0.472457886
16933.92063,0.435531616,0.042190552,0.481536865
16943.57762,0.435241699,0.038925171,0.480957031
16953.28262,0.449172974,0.054351807,0.495513916
16962.96763,0.513259888,0.081680298,0.523071289
16972.64863,0.62991333,0.171066284,0.558074951
16982.30463,0.848007202,0.297576904,0.608963013
16992.01062,1.371704102,0.515350342,0.606735229
17001.69262,2.066894531,0.786300659,0.506942749
17011.35562,2.344345093,0.937240601,0.369842529
17021.03163,2.053329468,0.971160889,0.240631104
17030.73563,1.67098999,0.940887451,0.065032959
17040.39062,1.400314331,0.901565552,-0.02104187
17050.09963,1.325088501,0.902404785,-0.082595825
17059.78163,1.437179565,0.988510132,-0.091186523
17069.46062,1.722015381,1.132537842,-0.014450073
17079.14863,1.913024902,1.237991333,0.094055176
17088.82963,1.904281616,1.247955322,0.018325806
17098.51063,1.862915039,1.124679565,-0.201751709
17108.19363,1.800231934,0.75289917,-0.410324097
17117.87463,1.61555481,0.39805603,-0.458511353
17127.55462,1.314361572,0.208084106,-0.368118286
17137.23662,0.994781494,0.127609253,-0.307174683
17146.91662,0.758407593,0.126556396,-0.299591064
17156.60162,0.622451782,0.181060791,-0.268890381
17166.28362,0.571609497,0.273468018,-0.241882324
17175.93863,0.601455688,0.401443481,-0.234283447
17185.64762,0.681838989,0.5027771,-0.286849976
17195.33163,0.772125244,0.539199829,-0.372268677
17204.99363,0.823577881,0.511672974,-0.443450928
17214.69562,0.791687012,0.486831665,-0.441085815
17224.36963,0.720367432,0.452224731,-0.433303833
17234.05163,0.654754639,0.348236084,-0.505554199
17243.74162,0.636520386,0.271362305,-0.607635498
17253.42362,0.637023926,0.233306885,-0.669464111
17263.10562,0.60319519,0.236984253,-0.615234375
17272.78862,0.560394287,0.252151489,-0.498352051
17282.44463,0.531326294,0.251907349,-0.405593872
17292.15162,0.517791748,0.248184204,-0.31098938
17301.83362,0.535064697,0.234191895,-0.273544312
17311.49363,0.549667358,0.271224976,-0.249298096
17321.17163,0.600631714,0.325653076,-0.240814209
17330.88162,0.676422119,0.389160156,-0.259002686
17340.55063,0.764663696,0.449249268,-0.279785156
17350.21863,0.848709106,0.500015259,-0.295593262
17359.91663,0.912414551,0.539794922,-0.302993774
17369.60062,0.943115234,0.560913086,-0.298843384
17379.29163,0.948181152,0.564224243,-0.29498291
17388.97363,0.937179565,0.55670166,-0.297698975
17398.65663,0.920776367,0.539138794,-0.305175781
17408.33962,0.907424927,0.503890991,-0.312362671
17418.02162,0.902999878,0.460678101,-0.319564819
17427.67863,0.894195557,0.424591064,-0.324645996
17437.38463,0.875244141,0.397293091,-0.323608398
17447.06763,0.86579895,0.368804932,-0.322860718
17456.75063,0.851470947,0.346755981,-0.320266724
17466.43362,0.843994141,0.320449829,-0.321975708
17476.10963,0.835357666,0.304000854,-0.332855225
17485.79663,0.837127686,0.293670654,-0.358444214
17495.48062,0.841629028,0.29486084,-0.383087158
17505.15863,0.843795776,0.298461914,-0.398254395
17514.84263,0.850357056,0.307785034,-0.40234375
17524.52463,0.860168457,0.327560425,-0.39692688
17534.19863,0.872238159,0.347427368,-0.382949829
17543.88863,0.885055542,0.368789673,-0.373031616
17553.56462,0.88583374,0.39402771,-0.363983154
17563.25263,0.917602539,0.404678345,-0.370742798
17572.93463,0.935058594,0.419464111,-0.370101929
17582.61563,0.952606201,0.43196106,-0.384307861
17592.29963,0.979171753,0.441101074,-0.399291992
17601.98163,0.999084473,0.450759888,-0.417922974
17611.65962,1.008346558,0.457489014,-0.433059692
17621.34563,1.021255493,0.458831787,-0.452713013
17631.01663,1.035842896,0.455352783,-0.470291138
17640.68763,1.051193237,0.446243286,-0.481231689
17650.39063,1.069946289,0.431991577,-0.486068726
17660.07262,1.09022522,0.419128418,-0.483016968
17669.74362,1.110473633,0.422836304,-0.467712402
17679.43363,1.131820679,0.431060791,-0.446395874
17689.12263,1.156066895,0.451766968,-0.423538208
17698.79863,1.150802612,0.517150879,-0.391418457
17708.48863,1.121459961,0.597900391,-0.344589233
17718.17063,1.112060547,0.636169434,-0.303161621
17727.85363,1.120162964,0.633483887,-0.264572144
17737.53363,1.115997314,0.598083496,-0.240356445
17747.21563,1.092971802,0.551544189,-0.225585938
17756.89763,1.047241211,0.503433228,-0.214782715
17766.57063,0.976806641,0.450119019,-0.193069458
17776.25862,0.894775391,0.388412476,-0.165359497
17785.92363,0.818511963,0.339691162,-0.131698608
17795.62462,0.765060425,0.307327271,-0.089050293
17805.30263,0.733078003,0.302383423,-0.053344727
17814.97963,0.717544556,0.314544678,-0.007629395
17824.67162,0.720123291,0.341873169,0.040924072
17834.34162,0.759918213,0.375671387,0.080810547
17844.01763,0.824813843,0.415664673,0.110321045
17853.70263,0.901229858,0.451263428,0.124954224
17863.37862,0.976867676,0.476394653,0.121536255
17873.06563,1.033233643,0.473861694,0.112518311
17882.75863,1.054504395,0.458023071,0.099945068
17892.44762,1.046020508,0.426956177,0.085174561
17902.13163,0.993103027,0.389862061,0.084640503
17911.80863,0.948120117,0.337387085,0.078552246
17921.49863,0.927474976,0.294921875,0.071624756
17931.18263,0.906906128,0.27255249,0.085540771
17940.86163,0.908477783,0.256393433,0.09552002
17950.54763,0.924438477,0.249740601,0.087661743
17960.23063,0.924606323,0.244247437,0.087554932
17969.88562,0.933227539,0.227645874,0.066101074
17979.59563,0.932617188,0.217529297,0.052764893
17989.27963,0.924087524,0.205581665,0.037246704
17998.93463,0.910705566,0.19519043,0.019714355
18008.64562,0.892959595,0.186843872,-0.002502441
18018.32862,0.900344849,0.175598145,-0.036132813
18028.01363,0.894241333,0.177124023,-0.057312012
18037.69663,0.879135132,0.19203186,-0.061309814
18047.37863,0.844345093,0.21786499,-0.053634644
18057.06063,0.811645508,0.252609253,-0.041854858
18066.74363,0.797637939,0.278762817,-0.024932861
18076.42063,0.796066284,0.300216675,-0.015533447
18086.09462,0.800476074,0.32069397,-0.006149292
18095.79163,0.809585571,0.341918945,-0.006591797
18105.47363,0.825836182,0.365386963,-0.014678955
18115.15563,0.846801758,0.390716553,-0.029281616
18124.83863,0.87260437,0.416687012,-0.048721313
18134.49562,0.903625488,0.446868896,-0.064544678
18144.20363,0.934143066,0.470565796,-0.073379517
18153.88663,0.949142456,0.490692139,-0.085876465
18163.55563,0.964065552,0.498123169,-0.09552002
18173.25363,0.977905273,0.492431641,-0.102554321
18182.92862,0.967453003,0.478744507,-0.106140137
18192.61763,0.957260132,0.462661743,-0.110305786
18202.30262,0.948623657,0.441329956,-0.111907959
18211.97963,0.944412231,0.41784668,-0.1146698
18221.66962,0.956161499,0.3956604,-0.122833252
18231.35162,0.981399536,0.381393433,-0.133041382
18241.03262,1.012176514,0.369445801,-0.135848999
18250.71763,1.045974731,0.360626221,-0.143676758
18260.40163,1.066360474,0.354431152,-0.146591187
18270.05463,1.090087891,0.348999023,-0.151870728
18279.76563,1.103591919,0.344345093,-0.157241821
18289.43462,1.114456177,0.341903687,-0.156677246
18299.12963,1.121582031,0.337905884,-0.160385132
18308.81563,1.116119385,0.334762573,-0.159973145
18318.49863,1.105560303,0.336349487,-0.149551392
18328.17362,1.099884033,0.343917847,-0.134552002
18337.86163,1.098480225,0.359909058,-0.114089966
18347.54163,1.095016479,0.381820679,-0.089492798
18357.22262,1.071456909,0.409332275,-0.06854248
18366.90563,1.086715698,0.44392395,-0.03237915
18376.58462,1.105941772,0.486221313,0.028717041
18386.27063,1.11895752,0.537094116,0.094314575
18395.95263,1.113937378,0.578598022,0.167861938
18405.61363,1.066986084,0.612792969,0.241668701
18415.29462,0.997634888,0.642608643,0.319824219
18425.00063,0.925018311,0.665176392,0.3828125
18434.66762,0.862808228,0.68421936,0.4193573
18444.34062,0.815704346,0.69644165,0.386199951
18454.04863,0.767196655,0.705459595,0.343902588
18463.72463,0.716690063,0.699554443,0.305404663
18473.40563,0.649185181,0.661956787,0.285614014
18483.09062,0.565078735,0.582244873,0.274093628
18492.77462,0.519454956,0.501602173,0.259170532
18502.45863,0.508743286,0.445327759,0.24861145
18512.12563,0.538742065,0.410919189,0.230484009
18521.80862,0.602874756,0.397598267,0.21711731
18531.49262,0.690765381,0.411895752,0.219268799
18541.17063,0.793365479,0.432144165,0.213821411
18550.85862,0.886688232,0.444732666,0.207427979
18560.54062,0.946914673,0.435653687,0.184890747
18570.21863,0.949859619,0.392105103,0.152648926
18579.92063,0.904678345,0.336105347,0.132675171
18589.60163,0.839401245,0.292678833,0.11000061
18599.27962,0.788619995,0.261611938,0.081298828
18608.96463,0.753356934,0.247756958,0.057754517
18618.64763,0.729263306,0.244674683,0.037307739
18628.31363,0.721496582,0.246566772,0.015808105
18638.00862,0.718383789,0.247467041,0.005111694
18647.69162,0.715515137,0.260040283,-0.009765625
18657.37563,0.716873169,0.278808594,-0.021514893
18667.05662,0.718795776,0.301147461,-0.029495239
18676.73762,0.720657349,0.329055786,-0.027954102
18686.41962,0.716522217,0.355819702,-0.023284912
18696.08062,0.720077515,0.378967285,-0.016281128
18705.76963,0.722412109,0.402359009,-0.011764526
18715.46662,0.727081299,0.429153442,-0.004577637
18725.15062,0.731811523,0.457687378,0.00213623
18734.80663,0.733612061,0.476776123,0.004730225
18744.51462,0.730926514,0.493103027,0.007873535
18754.16662,0.715164185,0.499664307,0.015136719
18763.87163,0.689788818,0.499160767,0.015213013
18773.55963,0.664962769,0.489700317,0.016235352
18783.23963,0.640396118,0.476898193,0.023345947
18792.91363,0.618850708,0.461547852,0.02243042
18802.60263,0.605819702,0.44519043,0.026107788
18812.28563,0.60723877,0.432067871,0.033187866
18821.96563,0.61340332,0.413253784,0.03755188
18831.57713,0.620483398,0.399215698,0.042373657
18841.26013,0.624710083,0.386810303,0.046234131
18850.94113,0.628662109,0.369918823,0.046020508
18860.62213,0.631011963,0.351669312,0.041992188
18870.29513,0.629470825,0.335861206,0.048065186
18879.98613,0.627258301,0.328567505,0.057281494
18889.66713,0.626708984,0.323745728,0.07194519
18899.33913,0.630020142,0.326004028,0.088317871
18909.03113,0.632019043,0.334259033,0.11177063
18918.71212,0.638916016,0.344558716,0.129226685
18928.38212,0.642196655,0.353012085,0.148727417
18938.07412,0.645782471,0.359375,0.163146973
18947.75613,0.64654541,0.361404419,0.166366577
18957.43012,0.647064209,0.361068726,0.168899536
18967.11813,0.646789551,0.366928101,0.172714233
18976.77013,0.646606445,0.378311157,0.188766479
18986.48013,0.651794434,0.397232056,0.222091675
18996.16113,0.668609619,0.427856445,0.270065308
19005.83513,0.695968628,0.461990356,0.322341919
19015.52512,0.721038818,0.494033813,0.367446899
19025.20612,0.746627808,0.524185181,0.39793396
19034.86213,0.772293091,0.545837402,0.412887573
19044.57212,0.790435791,0.558151245,0.417510986
19054.25312,0.804519653,0.576446533,0.416748047
19063.92913,0.839401245,0.598327637,0.417984009
19073.60413,0.895584106,0.619155884,0.415267944
19083.27712,0.977615356,0.641784668,0.428985596
19092.97413,1.089584351,0.660842896,0.434066772
19102.66312,1.232147217,0.678283691,0.434494019
19112.34213,1.395263672,0.697891235,0.426849365
19122.00812,1.527954102,0.745849609,0.433364868
19131.69112,1.703475952,0.768783569,0.399002075
19141.37212,1.833114624,0.765014648,0.331634521
19151.06113,1.868255615,0.716506958,0.24786377
19160.73513,1.783737183,0.618225098,0.150238037
19170.40413,1.58821106,0.524047852,0.079544067
19180.11013,1.404251099,0.455032349,0.018371582
19189.79213,1.279968262,0.402282715,-0.044586182
19199.44713,1.198226929,0.355133057,-0.077758789
19209.15513,1.162582397,0.322814941,-0.127182007
19218.83613,1.15145874,0.302902222,-0.167556763
19228.50312,1.150802612,0.30645752,-0.18737793
19238.19813,1.142868042,0.322982788,-0.20413208
19247.87912,1.129211426,0.3409729,-0.208221436
19257.54613,1.106903076,0.352050781,-0.205093384
19267.24113,1.067001343,0.36529541,-0.195220947
19276.92213,1.009292603,0.369827271,-0.181289673
19286.60313,0.953491211,0.377624512,-0.165710449
19296.28313,0.893585205,0.38444519,-0.153839111
19305.96312,0.839477539,0.39213562,-0.145767212
19315.64613,0.796173096,0.394134521,-0.135787964
19325.32712,0.756256104,0.392990112,-0.131103516
19334.98612,0.719802856,0.390731812,-0.124389648
19344.68813,0.692672729,0.389877319,-0.109741211
19354.36112,0.675567627,0.389984131,-0.096084595
19364.03813,0.665115356,0.388458252,-0.086257935
19373.73113,0.659866333,0.391036987,-0.077407837
19383.41112,0.658828735,0.397109985,-0.066299438
19393.08212,0.661026001,0.400283813,-0.055847168
19402.77213,0.666152954,0.402755737,-0.04107666
19412.45213,0.672515869,0.401641846,-0.03074646
19422.12413,0.677597046,0.401382446,-0.023086548
19431.81112,0.68397522,0.406112671,-0.014526367
19441.49212,0.690216064,0.406997681,-0.009170532
19451.17412,0.690689087,0.39730835,-0.002243042
19460.85513,0.68296814,0.380233765,0.009277344
19470.53613,0.661895752,0.361190796,0.024093628
19480.21212,0.647674561,0.337127686,0.03944397
19489.89713,0.641662598,0.321182251,0.055007935
19499.56712,0.648681641,0.311004639,0.071853638
19509.25812,0.663406372,0.309356689,0.104827881
19518.94012,0.668106079,0.300949097,0.132217407
19528.61013,0.657546997,0.287979126,0.156448364
19538.30013,0.636428833,0.274459839,0.180023193
19547.97913,0.60635376,0.256271362,0.201812744
19557.64313,0.578216553,0.238174438,0.228134155
19567.33813,0.549835205,0.223693848,0.252853394
19577.01913,0.528488159,0.217956543,0.284194946
19586.70013,0.522872925,0.209884644,0.313110352
19596.36912,0.533111572,0.208023071,0.33102417
19606.06313,0.557678223,0.211074829,0.336074829
19615.74412,0.583190918,0.218612671,0.323684692
19625.42113,0.607345581,0.226974487,0.299301147
19635.09612,0.641815186,0.250091553,0.283447266
19644.78813,0.694793701,0.266876221,0.285583496
19654.45212,0.770233154,0.294494629,0.322738647
19664.14813,0.862823486,0.334472656,0.392745972
19673.82612,0.990264893,0.417434692,0.483642578
19683.51113,1.17477417,0.54460144,0.56652832
19693.19413,1.548294067,0.725143433,0.554016113
19702.85613,1.994033813,0.896453857,0.41746521
19712.53813,2.201812744,0.947921753,0.223297119
19722.22013,1.970123291,0.88041687,0.080703735
19731.90113,1.548873901,0.750411987,0.013015747
19741.58212,1.246902466,0.659866333,-0.006149292
19751.28113,1.13343811,0.628341675,-0.002426147
19760.95013,1.243850708,0.624298096,-0.024581909
19770.64213,1.53918457,0.66986084,-0.127655029
19780.32413,1.858108521,0.746337891,-0.29359436
19790.00512,1.959365845,0.731170654,-0.417373657
19799.66512,1.801101685,0.643814087,-0.4793396
19809.36812,1.497802734,0.507232666,-0.444717407
19819.04912,1.184906006,0.347595215,-0.38381958
19828.73013,0.936080933,0.200241089,-0.348068237
19838.41013,0.776199341,0.134552002,-0.32484436
19848.09213,0.701950073,0.105361938,-0.345581055
19857.77012,0.69770813,0.091461182,-0.450683594
19867.45513,0.706329346,0.096557617,-0.665634155
19877.13613,0.729537964,0.112426758,-0.920593262
19886.81113,0.705581665,0.197509766,-1.040084839
19896.49912,0.593215942,0.331756592,-1.004150391
19906.18012,0.388412476,0.393447876,-0.974578857
19915.86212,0.275939941,0.337478638,-0.976913452
19925.54412,0.25352478,0.24899292,-0.863754272
19935.20512,0.339157104,0.200027466,-0.665786743
19944.90713,0.446151733,0.212875366,-0.533462524
19954.58913,0.52104187,0.247680664,-0.484893799
19964.25512,0.568527222,0.281265259,-0.485946655
19973.95313,0.607818604,0.307556152,-0.494934082
19983.63413,0.646575928,0.316864014,-0.492294312
19993.31112,0.674072266,0.317398071,-0.471572876
20002.97013,0.696136475,0.309432983,-0.438674927
20012.67813,0.714202881,0.301330566,-0.410202026
20022.35013,0.730499268,0.295471191,-0.389678955
20032.04012,0.748458862,0.30305481,-0.393463135
20041.72113,0.773010254,0.32522583,-0.396606445
20051.40412,0.795501709,0.359909058,-0.407180786
20061.08612,0.813217163,0.388839722,-0.432220459
20070.76813,0.804550171,0.393218994,-0.489013672
20080.44913,0.782058716,0.36907959,-0.545822144
20090.12512,0.777786255,0.344116211,-0.558364868
20099.78713,0.789215088,0.334899902,-0.543441772
20109.49413,0.797393799,0.340927124,-0.538116455
20119.17713,0.805343628,0.330505371,-0.548309326
20128.84013,0.813690186,0.324539185,-0.560562134
20138.53913,0.825302124,0.319046021,-0.569885254
20148.22113,0.842590332,0.320144653,-0.580337524
20157.89213,0.862503052,0.327209473,-0.579345703
20167.56613,0.885192871,0.335662842,-0.587753296
20177.26713,0.900512695,0.340164185,-0.580230713
20186.94013,0.910903931,0.344924927,-0.563140869
20196.62912,0.918701172,0.350326538,-0.540908813
20206.31013,0.932022095,0.355377197,-0.524765015
20215.99312,0.948486328,0.352996826,-0.490753174
20225.67413,0.963653564,0.359466553,-0.492156982
20235.35613,0.984283447,0.367111206,-0.498641968
20245.02112,1.003860474,0.377700806,-0.511611938
20254.72013,1.01789856,0.389709473,-0.51612854
20264.39213,1.025238037,0.39944458,-0.515808105
20274.05913,1.037277222,0.407699585,-0.524078369
20283.74713,1.050720215,0.413619995,-0.527770996
20293.42112,1.025588989,0.426528931,-0.49156189
20303.10312,1.015060425,0.43711853,-0.479873657
20312.78913,1.04145813,0.446655273,-0.487030029
20322.47413,1.068115234,0.453613281,-0.481735229
20332.15313,1.100814819,0.466751099,-0.483551025
20341.83613,1.150695801,0.489517212,-0.495697021
20351.51113,1.17288208,0.522232056,-0.467773438
20361.19913,1.18309021,0.536468506,-0.429443359
20370.87413,1.156219482,0.543731689,-0.391418457
20380.57713,1.088104248,0.536773682,-0.359146118
20390.25813,1.001541138,0.502975464,-0.324493408
20399.92712,0.907058716,0.452972412,-0.27557373
20409.62012,0.816345215,0.395874023,-0.227127075
20419.29913,0.744415283,0.347473145,-0.183944702
20428.94913,0.697570801,0.315673828,-0.1434021
20438.65813,0.678573608,0.298034668,-0.118682861
20448.33812,0.67817688,0.297958374,-0.09954834
20458.00213,0.695861816,0.313919067,-0.07484436
20467.69713,0.733810425,0.350845337,-0.055160522
20477.37813,0.782669067,0.388946533,-0.027236938
20487.04712,0.830963135,0.436569214,0.01222229
20496.70812,0.871170044,0.472549438,0.03237915
20506.41813,0.897232056,0.502807617,0.04548645
20516.09312,0.917022705,0.519805908,0.05581665
20525.78013,0.918777466,0.507659912,0.057388306
20535.46213,0.908493042,0.482131958,0.050521851
20545.14213,0.882827759,0.446594238,0.052398682
20554.82312,0.850479126,0.406204224,0.05897522
20564.47813,0.82510376,0.369567871,0.055236816
20574.18213,0.817657471,0.338104248,0.059295654
20583.86513,0.819229126,0.318069458,0.060409546
20593.53212,0.828689575,0.304962158,0.078857422
20603.22613,0.838790894,0.294937134,0.081314087
20612.90612,0.825592041,0.280059814,0.099777222
20622.56313,0.796905518,0.263534546,0.113098145
20632.26513,0.807998657,0.255615234,0.097946167
20641.94513,0.815261841,0.250213623,0.080718994
20651.61013,0.830749512,0.24559021,0.060699463
20661.30413,0.8646698,0.24899292,0.024383545
20670.98213,0.878189087,0.262405396,0.010467529
20680.66212,0.882247925,0.267684937,-0.001846313
20690.34312,0.888717651,0.279708862,-0.018173218
20700.02213,0.89666748,0.295974731,-0.034072876
20709.70213,0.892456055,0.313110352,-0.045974731
20719.38313,0.875579834,0.337783813,-0.050338745
20729.06312,0.852432251,0.358215332,-0.050674438
20738.74312,0.841751099,0.37979126,-0.038848877
20748.41712,0.853179932,0.398742676,-0.025192261
20758.10313,0.872848511,0.421218872,-0.019958496
20767.78212,0.904418945,0.442153931,-0.03112793
20777.45312,0.936416626,0.468795776,-0.047805786
20787.14213,0.966751099,0.495834351,-0.063858032
20796.80813,0.988174438,0.5181427,-0.073410034
20806.49313,1.010787964,0.530532837,-0.090835571
20816.18112,1.015396118,0.530532837,-0.111343384
20825.86113,1.015075684,0.52822876,-0.124649048
20835.52412,1.011795044,0.528793335,-0.132476807
20845.20513,1.009521484,0.526290894,-0.136535645
20854.88513,1.007217407,0.521820068,-0.143768311
20864.56613,1.000930786,0.514083862,-0.147735596
20874.24613,0.994247437,0.507385254,-0.150421143
20883.92712,0.987808228,0.496704102,-0.159896851
20893.62313,0.987487793,0.493301392,-0.167556763
20903.28413,1.000656128,0.484115601,-0.181350708
20912.98412,1.031890869,0.478805542,-0.190567017
20922.66412,1.03678894,0.482177734,-0.197235107
20932.34513,1.072692871,0.482894897,-0.205245972
20942.02613,1.090988159,0.487838745,-0.202911377
20951.69613,1.084823608,0.499694824,-0.190597534
20961.38813,1.096984863,0.508758545,-0.183242798
20971.06913,1.099609375,0.511383057,-0.170135498
20980.72612,1.097793579,0.509933472,-0.150024414
20990.42813,1.083572388,0.50920105,-0.132232666
21000.10913,1.056030273,0.512313843,-0.103652954
21009.78913,1.017425537,0.503677368,-0.079605103
21019.47013,0.971862793,0.486801147,-0.049026489
21029.15112,0.922805786,0.485366821,0.004272461
21038.83112,0.878997803,0.494171143,0.062744141
21048.51213,0.845703125,0.528167725,0.126358032
21058.19113,0.842727661,0.57611084,0.214736938
21067.87313,0.846939087,0.629043579,0.305725098
21077.55413,0.834655762,0.674468994,0.391799927
21087.23113,0.815155029,0.702667236,0.441314697
21096.91412,0.795532227,0.715881348,0.403137207
21106.59413,0.779495239,0.702407837,0.312927246
21116.26713,0.733734131,0.662414551,0.219039917
21125.95713,0.650863647,0.593276978,0.157226563
21135.63713,0.553268433,0.502578735,0.145751953
21145.31512,0.503173828,0.426147461,0.174697876
21154.99413,0.496307373,0.384185791,0.227661133
21164.67313,0.530776978,0.376434326,0.272109985
21174.35212,0.591445923,0.387512207,0.309432983
21184.01512,0.672348022,0.416366577,0.326599121
21193.68713,0.750213623,0.445632935,0.328277588
21203.39213,0.811599731,0.45324707,0.301879883
21213.07112,0.837783813,0.441665649,0.25479126
21222.72312,0.832336426,0.40512085,0.20149231
21232.39813,0.802398682,0.361373901,0.151565552
21242.10213,0.765014648,0.329330444,0.109588623
21251.78213,0.747528076,0.308776855,0.076812744
21261.47013,0.751876831,0.30531311,0.057022095
21271.15013,0.762969971,0.306884766,0.038131714
21280.82213,0.776245117,0.316894531,0.018218994
21290.50812,0.786849976,0.332473755,0.000747681
21300.18913,0.791702271,0.348617554,-0.017318726
21309.86913,0.792953491,0.366943359,-0.030685425
21319.54913,0.792236328,0.383407593,-0.039337158
21329.21812,0.785720825,0.401351929,-0.053482056
21338.90912,0.788360596,0.414474487,-0.064483643
21348.59013,0.786727905,0.432189941,-0.068634033
21358.26913,0.780700684,0.445114136,-0.071685791
21367.94612,0.769958496,0.457992554,-0.078094482
21377.63013,0.75328064,0.464828491,-0.086364746
21387.29812,0.727783203,0.467147827,-0.080947876
21396.99013,0.699829102,0.466781616,-0.072647095
21406.66913,0.668075562,0.464111328,-0.068145752
21416.33213,0.637741089,0.460861206,-0.064224243
21426.02912,0.604324341,0.457183838,-0.060195923
21435.70313,0.575134277,0.45350647,-0.04977417
21445.38113,0.559188843,0.45072937,-0.044128418
21455.06813,0.556396484,0.451599121,-0.039093018
21464.74912,0.562454224,0.453216553,-0.036026001
21474.42912,0.57131958,0.4584198,-0.035644531
21484.11013,0.583953857,0.458755493,-0.030502319
21493.76913,0.594497681,0.457107544,-0.02633667
21503.47113,0.613555908,0.451171875,-0.026077271
21513.15313,0.634048462,0.446792603,-0.021316528
21522.82112,0.655654907,0.444091797,-0.007461548
21532.51412,0.68182373,0.446762085,0.004714966
21542.19412,0.712677002,0.449234009,0.01612854
21551.84612,0.733596802,0.455795288,0.034393311
21561.55313,0.74357605,0.458679199,0.053848267
21571.23413,0.739501953,0.454467773,0.075958252
21580.90713,0.727478027,0.447021484,0.099212646
21590.59812,0.71131897,0.437103271,0.126403809
21600.27812,0.690704346,0.423217773,0.149703979
21609.95713,0.668106079,0.412734985,0.185974121
21619.63613,0.658752441,0.411621094,0.227966309
21629.31512,0.652816772,0.419998169,0.269348145
21638.97213,0.654312134,0.43901062,0.302520752
21648.67313,0.655227661,0.461547852,0.323440552
21658.35012,0.654891968,0.473129272,0.322280884
21668.03113,0.641326904,0.469482422,0.303329468
21677.71013,0.611221313,0.458862305,0.276977539
21687.37213,0.577926636,0.444610596,0.258209229
21697.06912,0.550216675,0.417190552,0.271774292
21706.74913,0.518753052,0.392456055,0.314361572
21716.42512,0.52230835,0.384246826,0.356002808
21726.10712,0.579925537,0.412002563,0.395385742
21735.78613,0.686386108,0.46282959,0.420974731
21745.45713,0.830413818,0.522476196,0.424316406
21755.12112,1.009658813,0.59777832,0.418319702
21764.82213,1.20904541,0.681472778,0.404373169
21774.50113,1.404006958,0.765945435,0.396072388
21784.18113,1.601974487,0.843658447,0.389053345
21793.84813,1.778381348,0.898880005,0.358352661
21803.53813,1.886550903,0.909790039,0.270065308
21813.19613,1.908340454,0.866531372,0.147537231
21822.87113,1.803833008,0.770095825,0.043151855
21832.57413,1.641784668,0.638549805,-0.055145264
21842.23213,1.491928101,0.560913086,-0.12171936
21851.92412,1.397171021,0.501464844,-0.178817749
21861.59713,1.339324951,0.449752808,-0.224609375
21871.27612,1.310699463,0.39906311,-0.256774902
21880.96012,1.299072266,0.361175537,-0.278121948
21890.62413,1.277694702,0.342681885,-0.287796021
21900.32412,1.232391357,0.344345093,-0.28843689
21909.99113,1.167633057,0.356063843,-0.272521973
21919.67113,1.092010498,0.381561279,-0.266220093
21929.35213,1.01739502,0.415786743,-0.284912109
21939.03312,0.947952271,0.459899902,-0.295684814
21948.71213,0.891860962,0.517181396,-0.290924072
21958.39913,0.886428833,0.549819946,-0.316986084
21968.08413,0.872711182,0.5440979,-0.316329956
21977.77013,0.799713135,0.502700806,-0.286239624
21987.42212,0.737075806,0.448883057,-0.254898071
21997.12612,0.68598938,0.410369873,-0.218994141
22006.80113,0.638809204,0.395797729,-0.174179077
22016.46313,0.61076355,0.402450562,-0.119415283
22026.17113,0.601043701,0.402938843,-0.081787109
22035.84913,0.610870361,0.389663696,-0.06451416
22045.52812,0.628067017,0.375839233,-0.048858643
22055.12713,0.634170532,0.357894897,-0.033920288
22064.80813,0.628128052,0.344619751,-0.014892578
22074.50213,0.617828369,0.345336914,0.000839233
22084.50212,0.628128052,0.344970703,0.014328003
22094.12012,0.644958496,0.341705322,0.010543823
22103.77312,0.654769897,0.341842651,0.011520386
22113.45113,0.66078186,0.344985962,0.017242432
22123.15113,0.668502808,0.344177246,0.033370972
22132.82513,0.674713135,0.35496521,0.039306641
22142.49913,0.689163208,0.357818604,0.051574707
22152.17312,0.723190308,0.365463257,0.074020386
22161.81913,0.76109314,0.384857178,0.11567688
22171.47913,0.801101685,0.401733398,0.178741455
22181.18213,0.842010498,0.413787842,0.223052979
22190.86313,0.862945557,0.419082642,0.28125
22200.51812,0.858215332,0.419921875,0.341125488
22210.22312,0.835998535,0.407394409,0.392364502
22219.90413,0.806137085,0.388427734,0.425094604
22229.57612,0.779190063,0.375610352,0.442443848
22239.25413,0.749176025,0.36819458,0.431167603
22248.92313,0.709625244,0.354125977,0.404724121
22258.60813,0.670837402,0.338424683,0.381408691
22268.30113,0.621826172,0.312698364,0.381530762
22277.98113,0.572952271,0.29335022,0.395233154
22287.64713,0.525772095,0.274734497,0.420181274
22297.32913,0.486114502,0.251937866,0.453170776
22307.02612,0.456634521,0.232009888,0.481582642
22316.68913,0.449325562,0.224822998,0.494277954
22326.37012,0.466751099,0.227600098,0.490066528
22336.05613,0.52130127,0.248794556,0.486114502
22345.74512,0.608169556,0.29826355,0.483078003
22355.40412,0.73324585,0.395294189,0.47668457
22365.07712,1.022583008,0.526763916,0.35887146
22374.78513,1.447906494,0.658447266,0.135910034
22384.46312,1.781723022,0.752029419,0.00428772
22394.13612,1.844985962,0.787033081,0.00553894
22403.82413,1.657165527,0.766601563,0.027664185
22413.50413,1.425476074,0.718902588,-0.001525879
22423.18413,1.284744263,0.69367981,-0.102142334
22432.86412,1.260314941,0.732086182,-0.161911011
22442.54413,1.410491943,0.807891846,-0.247741699
22452.22413,1.671569824,0.809524536,-0.346939087
22461.90513,1.870803833,0.818984985,-0.531845093
22471.58513,1.808410645,0.768859863,-0.633972168
22481.25813,1.610839844,0.671203613,-0.649475098
22490.94513,1.416793823,0.532684326,-0.689559937
22500.60712,1.245010376,0.34916687,-0.729095459
22510.30513,1.070724487,0.173034668,-0.768096924
22519.98613,0.876403809,0.113113403,-0.837768555
22529.65913,0.717987061,0.141555786,-0.862136841
22539.34413,0.575653076,0.215179443,-0.834854126
22549.02513,0.329528809,0.321685791,-0.905609131
22558.68212,0.110992432,0.353912354,-1.152572632
22568.38613,0.043380737,0.33303833,-1.289154053
22578.06712,0.231430054,0.290267944,-1.087524414
22587.74812,0.485092163,0.237518311,-0.854766846
22597.42913,0.597961426,0.196548462,-0.746902466
22607.10813,0.640060425,0.178085327,-0.630355835
22616.78913,0.63961792,0.173278809,-0.533676147
22626.47113,0.62677002,0.205993652,-0.476226807
22636.13513,0.624816895,0.279495239,-0.453521729
22645.83212,0.629669189,0.348968506,-0.463439941
22655.51113,0.639007568,0.373519897,-0.442428589
22665.18813,0.635925293,0.376373291,-0.404510498
22674.87213,0.630371094,0.363845825,-0.363571167
22684.54913,0.636505127,0.34161377,-0.337432861
22694.22212,0.6537323,0.306213379,-0.32635498
22703.91213,0.679000854,0.2784729,-0.324874878
22713.59213,0.711654663,0.27104187,-0.330368042
22723.26513,0.753494263,0.280059814,-0.328811646
22732.95413,0.781616211,0.303817749,-0.340667725
22742.63613,0.79927063,0.334487915,-0.358398438
22752.31612,0.793930054,0.348312378,-0.395004272
22761.99013,0.795837402,0.344543457,-0.416931152
22771.66213,0.788391113,0.333206177,-0.438369751
22781.35813,0.780899048,0.324737549,-0.453277588
22791.04013,0.777648926,0.319961548,-0.472579956
22800.70013,0.770584106,0.318984985,-0.499328613
22810.39313,0.769042969,0.323165894,-0.522323608
22820.08212,0.76348877,0.331787109,-0.543777466
22829.76512,0.756591797,0.341415405,-0.562225342
22839.44313,0.750183105,0.351638794,-0.568939209
22849.10912,0.744644165,0.361999512,-0.567520142
22858.78912,0.747207642,0.370391846,-0.562301636
22868.47212,0.755584717,0.380615234,-0.564498901
22878.15312,0.76473999,0.380722046,-0.562759399
22887.84313,0.787475586,0.382476807,-0.567611694
22897.51413,0.81149292,0.384490967,-0.574081421
22907.19313,0.835906982,0.380554199,-0.569061279
22916.89313,0.858627319,0.373031616,-0.569595337
22926.57413,0.880401611,0.366531372,-0.559066772
22936.24313,0.901535034,0.354888916,-0.551773071
22945.93813,0.921813965,0.359558105,-0.562286377
22955.62013,0.940093994,0.366592407,-0.563232422
22965.29813,0.942840576,0.372161865,-0.559509277
22974.90513,0.92489624,0.381210327,-0.558013916
22984.58713,0.901672363,0.395385742,-0.557907104
22994.27313,0.906204224,0.416015625,-0.561904907
23003.95213,0.937194824,0.434585571,-0.554031372
23013.62112,0.998855591,0.46244812,-0.560501099
23023.32612,1.052719116,0.483917236,-0.555282593
23033.01313,1.084747314,0.510452271,-0.541503906
23042.69513,1.082763672,0.5337677,-0.502227783
23052.34913,1.103363037,0.57208252,-0.490493774
23062.05713,1.107421875,0.620651245,-0.472427368
23071.73712,1.077926636,0.668380737,-0.428253174
23081.41012,1.054397583,0.683807373,-0.380477905
23091.09913,1.049362183,0.673446655,-0.34362793
23100.78213,1.051055908,0.638519287,-0.320449829
23110.46213,1.026809692,0.59324646,-0.305877686
23120.14213,0.966262817,0.539779663,-0.288482666
23129.82513,0.889541626,0.473022461,-0.258270264
23139.49913,0.80947876,0.401504517,-0.222488403
23149.18512,0.748886108,0.34979248,-0.183914185
23158.85512,0.716186523,0.312484741,-0.147674561
23168.54812,0.706115723,0.291137695,-0.123626709
23178.22813,0.720581055,0.29069519,-0.102355957
23187.90512,0.753616333,0.302536011,-0.085586548
23197.59213,0.800369263,0.335632324,-0.070220947
23207.27213,0.853393555,0.37890625,-0.052581787
23216.94713,0.907318115,0.422210693,-0.026306152
23226.63312,0.953018188,0.451782227,-0.006118774
23236.31412,0.98348999,0.465591431,-0.004104614
23245.98413,1.006027222,0.468002319,-0.012512207
23255.67813,1.009017944,0.453170776,-0.0234375
23265.35913,1.014434814,0.427185059,-0.033630371
23275.04013,1.000335693,0.406555176,-0.036270142
23284.72013,0.983306885,0.387130737,-0.037536621
23294.40012,0.962249756,0.366088867,-0.042098999
23304.08012,0.930328369,0.345932007,-0.041732788
23313.76113,0.902282715,0.321624756,-0.037200928
23323.44113,0.868911743,0.300460815,-0.039810181
23333.12113,0.838989258,0.285079956,-0.037841797
23342.78413,0.806640625,0.271759033,-0.03515625
23352.45912,0.784225464,0.265945435,-0.037033081
23362.16612,0.756561279,0.262802124,-0.038421631
23371.84712,0.739318848,0.258911133,-0.050872803
23381.51912,0.747436523,0.260467529,-0.066986084
23391.20913,0.746963501,0.264816284,-0.083236694
23400.89212,0.767288208,0.274108887,-0.107757568
23410.57213,0.782928467,0.292877197,-0.126541138
23420.23812,0.783569336,0.312973022,-0.138519287
23429.93213,0.775283813,0.330963135,-0.148910522
23439.61312,0.780883789,0.354125977,-0.164871216
23449.29412,0.782180786,0.370941162,-0.180908203
23458.96413,0.776443481,0.385421753,-0.186950684
23468.64912,0.786804199,0.403808594,-0.186477661
23478.33513,0.802139282,0.416900635,-0.194015503
23488.01713,0.820556641,0.425674438,-0.20866394
23497.69913,0.831802368,0.427642822,-0.229660034
23507.38213,0.851303101,0.430358887,-0.248916626
23517.03912,0.85760498,0.428070068,-0.265548706
23526.74412,0.889877319,0.425369263,-0.280258179
23536.42512,0.918960571,0.419540405,-0.297805786
23546.09213,0.941665649,0.416107178,-0.304595947
23555.76613,0.964477539,0.412948608,-0.310623169
23565.46713,0.9868927,0.405990601,-0.320068359
23575.14813,1.001144409,0.3956604,-0.327255249
23584.82013,1.016494751,0.384796143,-0.332000732
23594.49313,1.025863647,0.37600708,-0.339675903
23604.18112,1.02444458,0.366409302,-0.342300415
23613.86613,1.05645752,0.365127563,-0.362258911
23623.54612,1.071731567,0.371414185,-0.357330322
23633.21512,1.078033447,0.38130188,-0.34828186
23642.89712,1.089019775,0.406829834,-0.346450806
23652.58813,1.100494385,0.437026978,-0.343490601
23662.25913,1.112960815,0.470779419,-0.335739136
23671.94512,1.132751465,0.498397827,-0.313690186
23681.62413,1.159194946,0.517730713,-0.286483765
23691.31913,1.198486328,0.529495239,-0.258956909
23700.99913,1.187133789,0.523651123,-0.181350708
23710.67313,1.144439697,0.505905151,-0.098907471
23720.32913,1.107421875,0.495910645,-0.041824341
23730.03413,1.076202393,0.503814697,0.025375366
23739.71913,1.049423218,0.527267456,0.081954956
23749.39713,1.019805908,0.562103271,0.143112183
23759.07813,0.971008301,0.590560913,0.218414307
23768.76013,0.909561157,0.599853516,0.277633667
23778.44012,0.832519531,0.593475342,0.319564819
23788.09713,0.767288208,0.563156128,0.328292847
23797.80013,0.711853027,0.525161743,0.314880371
23807.48013,0.688247681,0.52130127,0.266479492
23817.14912,0.689407349,0.544448853,0.191543579
23826.76013,0.674163818,0.562103271,0.136047363
23836.44213,0.656936646,0.561676025,0.106643677
23846.11313,0.632781982,0.534179688,0.120101929
23855.80212,0.60736084,0.486755371,0.193878174
23865.48213,0.610061646,0.454544067,0.297012329
23875.14213,0.639984131,0.438705444,0.378204346
23884.78113,0.691070557,0.434387207,0.426208496
23894.46113,0.758239746,0.443099976,0.437805176
23904.12513,0.816574097,0.448974609,0.416046143
23913.82112,0.854156494,0.446884155,0.371414185
23923.49513,0.860275269,0.426940918,0.318435669
23933.17313,0.846817017,0.395355225,0.263412476
23942.86013,0.826980591,0.363922119,0.209030151
23952.54012,0.797088623,0.343322754,0.166946411
23962.22013,0.783905029,0.326843262,0.126785278
23971.89913,0.777770996,0.323348999,0.093658447
23981.57812,0.778793335,0.325332642,0.067230225
23991.25712,0.778244019,0.331588745,0.034912109
24000.93613,0.777893066,0.347640991,0.006347656
24010.59313,0.77545166,0.365356445,-0.021240234
24020.29512,0.770614624,0.386871338,-0.047073364
24029.97413,0.757797241,0.400558472,-0.06237793
24039.62612,0.746658325,0.413223267,-0.067138672
24049.33313,0.74269104,0.432952881,-0.068359375
24059.01312,0.741363525,0.44732666,-0.075073242
24068.68512,0.739074707,0.46534729,-0.08543396
24078.37313,0.73614502,0.490692139,-0.093032837
24088.05313,0.721923828,0.512374878,-0.12713623
24097.73312,0.723587036,0.522354126,-0.19581604
24107.41412,0.72883606,0.511230469,-0.250457764
24117.09513,0.759017944,0.486587524,-0.278030396
24126.75013,0.811828613,0.465209961,-0.280181885
24136.45513,0.860870361,0.45223999,-0.273147583
24146.12212,0.884887695,0.455108643,-0.255645752
24155.81512,0.873764038,0.463470459,-0.229782104
24165.49613,0.823608398,0.468154907,-0.174606323
24175.14912,0.773269653,0.458755493,-0.120437622
24184.85713,0.744140625,0.447845459,-0.084152222
24194.53713,0.732543945,0.437149048,-0.066375732
24204.19713,0.741973877,0.440933228,-0.064941406
24213.90012,0.761306763,0.449478149,-0.069000244
24223.58212,0.788879395,0.459640503,-0.086181641
24233.25513,0.810409546,0.470336914,-0.104980469
24242.94313,0.817733765,0.487136841,-0.110946655
24252.62013,0.811599731,0.497039795,-0.096572876
24262.30613,0.799484253,0.508987427,-0.073684692
24271.98813,0.785263062,0.518203735,-0.057067871
