time (ms),accelerometerAccelerationX,accelerometerAccelerationY,accelerometerAccelerationZ
0,0.177780151,-0.259429932,-0.953521729
9.688,0.197601318,-0.258666992,-0.991012573
19.382,0.191009521,-0.260604858,-1.027603149
29.047,0.144699097,-0.327865601,-0.99798584
38.723,0.113265991,-0.319259644,-1.004333496
48.402,0.105865479,-0.301208496,-1.019042969
58.101,0.107833862,-0.296569824,-1.031524658
67.775,0.114334106,-0.294372559,-1.05632019
77.459,0.115219116,-0.282043457,-1.062347412
87.124,0.113601685,-0.269195557,-1.044128418
96.815,0.098968506,-0.222564697,-1.00920105
106.494,0.064880371,-0.185836792,-0.998046875
116.156,0.04826355,-0.184844971,-1.000320435
125.852,0.061752319,-0.199203491,-1.032669067
135.53,-0.001937866,-0.220001221,-1.017791748
145.19,-0.00352478,-0.227783203,-0.957260132
154.887,-0.017807007,-0.253234863,-0.91267395
164.566,-0.061584473,-0.284515381,-0.897201538
174.231,-0.084243774,-0.305038452,-0.881744385
183.925,-0.110397339,-0.300506592,-0.8253479
193.603,-0.132247925,-0.278442383,-0.746170044
203.281,-0.125305176,-0.234008789,-0.695861816
212.958,-0.123123169,-0.195022583,-0.703216553
222.632,-0.094345093,-0.16468811,-0.723632813
232.314,-0.061355591,-0.132232666,-0.752685547
241.992,-0.040908813,-0.129745483,-0.772171021
251.642,-0.021697998,-0.133911133,-0.773361206
261.348,-0.024078369,-0.149429321,-0.762954712
271.021,-0.024276733,-0.171844482,-0.758041382
280.696,-0.008804321,-0.183532715,-0.756286621
290.383,0.016998291,-0.178665161,-0.764312744
300.056,0.027542114,-0.176467896,-0.776168823
309.722,0.047897339,-0.158691406,-0.793731689
319.415,0.066421509,-0.125823975,-0.815750122
329.092,0.068069458,-0.098266602,-0.831222534
338.761,0.053131104,-0.063430786,-0.844421387
348.425,0.101501465,-0.063919067,-0.848800659
358.125,0.076843262,-0.03137207,-0.806167603
367.802,0.074691772,-0.005264282,-0.768127441
377.481,0.082077026,-0.003875732,-0.741363525
387.153,0.102478027,-0.024856567,-0.72366333
396.838,0.08895874,-0.066696167,-0.688217163
406.514,0.059082031,-0.0756073,-0.736282349
416.17,0.12487793,-0.099411011,-0.833770752
425.869,0.37411499,-0.421081543,-2.189880371
435.548,0.244293213,-0.332550049,-1.2684021
445.227,0.172622681,-0.206298828,-0.835067749
454.901,0.121673584,-0.075332642,-0.800354004
464.567,0.056533813,0.056488037,-0.871643066
474.248,0.126724243,0.106414795,-0.931030273
483.937,0.215316772,-0.036239624,-0.824310303
493.608,0.204193115,-0.174835205,-0.78604126
503.289,0.191940308,-0.15574646,-0.778198242
512.97,0.184539795,-0.095291138,-0.771972656
522.65,0.23034668,-0.108932495,-0.654876709
532.331,0.218139648,-0.086395264,-0.545913696
542.028,0.179046631,-0.013977051,-0.57611084
551.703,0.170410156,0.092132568,-0.603363037
561.388,0.197875977,0.233200073,-0.810806274
571.067,0.274353027,0.295944214,-0.80847168
580.725,0.237991333,0.280166626,-0.798812866
590.427,0.13899231,0.24420166,-0.907287598
600.105,0.02935791,0.222488403,-1.083694458
609.757,0.063720703,0.228622437,-1.149520874
619.462,0.071548462,0.209671021,-0.894744873
629.141,0.024902344,0.186721802,-0.847198486
638.812,0.0756073,0.187149048,-0.753845215
648.498,0.20350647,0.239730835,-0.721313477
658.179,0.285583496,0.334777832,-0.793106079
667.86,0.254562378,0.386367798,-1.350143433
677.532,0.298828125,0.386611938,-1.715774536
687.219,0.221313477,0.438995361,-1.265487671
696.898,0.171005249,0.388320923,-1.573379517
706.577,0.207580566,0.277755737,-1.615737915
716.254,0.194076538,0.305877686,-1.408279419
725.932,0.21434021,0.33404541,-1.359771729
735.611,0.206481934,0.313461304,-1.126403809
745.276,0.201156616,0.257156372,-0.996856689
754.95,0.294082642,0.136245728,-0.96697998
764.649,0.518814087,-0.074874878,-0.964599609
774.32,0.360855103,-0.086502075,-0.82194519
784.005,0.160491943,0.093017578,-0.805023193
793.658,0.174453735,0.252212524,-0.786270142
803.332,0.178466797,0.35093689,-0.761520386
813.035,0.180969238,0.376113892,-0.722457886
822.7,0.23664856,0.396240234,-0.685653687
832.398,0.36769104,0.404327393,-0.61416626
842.078,0.449249268,0.344207764,-0.509262085
851.738,0.432617188,0.274383545,-0.594345093
861.437,0.518692017,0.225708008,-0.535522461
871.115,0.598449707,0.287765503,-0.826416016
880.775,0.674255371,0.299911499,-1.083938599
890.464,0.668685913,0.306274414,-1.086471558
900.153,0.729232788,0.390228271,-1.1509552
909.827,0.721847534,0.423400879,-1.262176514
919.485,0.629226685,0.387756348,-1.098907471
929.188,0.47895813,0.354858398,-0.918685913
938.856,0.448455811,0.330490112,-0.767608643
948.534,0.516891479,0.307388306,-0.640319824
958.198,0.514801025,0.297927856,-0.59777832
967.894,0.479568481,0.359603882,-0.640411377
977.58,0.509994507,0.377655029,-0.669204712
987.237,0.547393799,0.427932739,-0.706802368
996.917,0.589370728,0.416656494,-0.634857178
1006.612,0.654693604,0.438064575,-0.540328979
1016.276,0.658432007,0.50604248,-0.565002441
1025.952,0.552429199,0.575378418,-0.513656616
1035.647,0.50680542,0.587417603,-0.425537109
1045.325,0.527984619,0.513778687,-0.3984375
1055.005,0.548675537,0.474014282,-0.389007568
1064.682,0.513153076,0.528549194,-0.362106323
1074.333,0.446212769,0.569503784,-0.364242554
1084.037,0.452102661,0.545547485,-0.41444397
1093.715,0.464355469,0.579345703,-0.462005615
1103.385,0.483703613,0.610961914,-0.520492554
1113.072,0.527633667,0.618850708,-0.570205688
1122.749,0.607833862,0.60383606,-0.605545044
1132.422,0.670043945,0.651016235,-0.630325317
1142.105,0.716812134,0.686538696,-0.616149902
1151.783,0.783325195,0.68939209,-0.597335815
1161.377625,0.818069458,0.674880981,-0.579330444
1171.036625,0.889648438,0.59715271,-0.581756592
1180.705625,0.927001953,0.551940918,-0.606155396
1190.412625,0.95401001,0.542633057,-0.643218994
1200.091625,0.991989136,0.558181763,-0.645141602
1209.758625,1.049972534,0.604476929,-0.635803223
1219.384625,1.161911011,0.64163208,-0.60383606
1229.062625,1.263046265,0.681777954,-0.546875
1238.733625,1.296401978,0.717453003,-0.512588501
1248.419625,1.291397095,0.774765015,-0.501541138
1258.081625,1.248779297,0.785903931,-0.46144104
1267.755625,1.203689575,0.750198364,-0.425994873
1277.451625,1.184280396,0.683013916,-0.413101196
1287.104625,1.163085938,0.631225586,-0.435409546
1296.803625,1.136077881,0.596160889,-0.457687378
1306.482625,1.103240967,0.534683228,-0.47253418
1316.161625,1.079498291,0.484771729,-0.487213135
1325.829625,1.078735352,0.527175903,-0.507171631
1335.514625,1.037994385,0.553268433,-0.482666016
1345.190625,0.997802734,0.562362671,-0.492523193
1354.869625,0.981719971,0.567977905,-0.521835327
1364.547625,1.051498413,0.585754395,-0.584747314
1374.201625,1.042541504,0.530014038,-0.528518677
1383.898625,1.036987305,0.462402344,-0.413040161
1393.579625,1.058364868,0.410446167,-0.335693359
1403.252625,1.082275391,0.394546509,-0.286956787
1412.928625,1.047668457,0.423843384,-0.292541504
1422.615625,0.970504761,0.437271118,-0.283843994
1432.277625,0.850265503,0.44670105,-0.301437378
1441.950625,0.760864258,0.409957886,-0.330795288
1451.630625,0.865402222,0.426147461,-0.291259766
1461.298625,0.720870972,0.376907349,-0.213623047
1470.989625,0.62550354,0.402908325,-0.197265625
1480.668625,0.60534668,0.4765625,-0.125549316
1490.346625,0.603561401,0.497329712,-0.126800537
1500.040625,0.640350342,0.529449463,-0.191940308
1509.718625,0.739685059,0.601379395,-0.240982056
1519.395625,0.812103271,0.656524658,-0.241149902
1529.073625,0.885757446,0.700073242,-0.208786011
1538.721625,0.89932251,0.742965698,-0.167266846
1548.429625,0.872680664,0.742797852,-0.114547729
1558.107625,0.968322754,0.658187866,0.009689331
1567.774625,0.867263794,0.559494019,0.059539795
1577.464625,0.993164063,0.494750977,0.049682617
1587.136625,1.070617676,0.449035645,0.114654541
1596.794625,0.929550171,0.416305542,0.139068604
1606.499625,0.632522583,0.470596313,0.117340088
1616.179625,0.531082153,0.543457031,-0.041473389
1625.849625,0.703598022,0.508972168,-0.130401611
1635.534625,0.959594727,0.398635864,-0.145187378
1645.212625,0.897491455,0.388580322,-0.023864746
1654.889625,0.742034912,0.408111572,0.025253296
1664.545625,0.813247681,0.451675415,-0.096740723
1674.246625,0.93182373,0.468200684,-0.134857178
1683.924625,0.970031738,0.437728882,-0.099456787
1693.603625,0.939086914,0.389663696,-0.107009888
1703.277625,0.8934021,0.351776123,-0.124694824
1712.958625,0.916671753,0.319534302,-0.097747803
1722.632625,0.968154907,0.296600342,-0.060256958
1732.293625,1.024276733,0.295547485,-0.012268066
1741.996625,1.037567139,0.328720093,0.044937134
1751.673625,1.021026611,0.392883301,0.058914185
1761.348625,1.019775391,0.430358887,0.063766479
1771.028625,1.023620605,0.405807495,0.029830933
1780.705625,1.059448242,0.368713379,-0.008895874
1790.368625,0.982513428,0.327667236,-0.108322144
1800.061625,0.935577393,0.266571045,-0.134262085
1809.740625,0.902252197,0.248840332,-0.103271484
1819.417625,0.861968994,0.250488281,-0.082489014
1829.096625,0.832366943,0.261810303,-0.104064941
1838.770625,0.774627686,0.276062012,-0.067382813
1848.452625,0.736221313,0.288223267,-0.073608398
1858.129625,0.764053345,0.300415039,-0.070877075
1867.785625,0.792541504,0.330001831,-0.060836792
1877.489625,0.807357788,0.348815918,-0.032424927
1887.140625,0.871109009,0.311965942,-0.022827148
1896.845625,0.95350647,0.299942017,-0.006912231
1906.520625,1.006652832,0.29196167,0.03465271
1916.192625,0.941146851,0.27532959,0.010070801
1925.867625,0.937835693,0.272064209,0.010360718
1935.541625,0.904174805,0.262405396,-0.020614624
1945.220625,0.909637451,0.247116089,-0.043991089
1954.899625,0.932617188,0.260925293,-0.056503296
1964.579625,0.898696899,0.26890564,-0.072647095
1974.258625,0.836837769,0.242202759,-0.090438843
1983.937625,0.781188965,0.267944336,-0.072540283
1993.632625,0.722396851,0.292327881,-0.068649292
2003.290625,0.717453003,0.299560547,-0.047439575
2012.992625,0.7603302,0.281158447,-0.038467407
2022.672625,0.776626587,0.270507813,-0.032531738
2032.343625,0.837509155,0.263671875,0.014053345
2042.028625,0.921188354,0.304702759,0.04800415
2051.706625,0.996948242,0.320175171,0.055282593
2061.360625,1.011642456,0.310043335,0.037017822
2071.039625,1.01385498,0.269592285,-0.001296997
2080.743625,0.956985474,0.276428223,-0.019058228
2090.415625,0.900421143,0.289352417,-0.059555054
2100.101625,0.791732788,0.279876709,-0.094085693
2109.782625,0.740356445,0.255905151,-0.086257935
2119.455625,0.751541138,0.259994507,-0.082611084
2129.138625,0.790603638,0.246765137,-0.062347412
2138.788625,0.792312622,0.225372314,-0.039093018
2148.496625,0.830871582,0.224914551,0.028961182
2158.175625,0.875717163,0.271881104,0.091186523
2167.833625,0.939437866,0.337280273,0.108398438
2177.531625,0.978820801,0.358200073,0.103851318
2187.207625,0.981903076,0.311355591,0.093582153
2196.864625,0.941604614,0.265670776,0.058197021
2206.562625,0.876754761,0.233810425,0.026626587
2216.239625,0.867095947,0.181213379,0.00843811
2225.906625,0.869506836,0.155899048,0.016586304
2235.593625,0.898864746,0.173904419,0.052307129
2245.269625,0.907180786,0.276077271,0.11164856
2254.939625,0.941238403,0.406402588,0.147491455
2264.623625,0.952072144,0.53477478,0.142730713
2274.296625,0.939071655,0.578704834,0.07484436
2283.977625,0.855957031,0.606201172,0.033798218
2293.655625,0.654998779,0.540542603,-0.054382324
2303.308625,0.72869873,0.103668213,-0.20072937
2313.009625,0.87588501,0.34185791,-0.132995605
2322.679625,0.992141724,0.710266113,0.118286133
2332.361625,1.096984863,0.90411377,0.134902954
2342.037625,1.062316895,0.901596069,0.20866394
2351.714625,1.073471069,0.869628906,0.246246338
2361.383625,1.116760254,0.75668335,0.078277588
2371.067625,1.137817383,0.602386475,-0.067672729
2380.744625,1.159957886,0.494598389,-0.099502563
2390.410625,1.095062256,0.439376831,-0.123245239
2400.080625,1.055679321,0.537796021,-0.073638916
2409.773625,1.177062988,0.596420288,0.032165527
2419.428625,1.349502563,0.58303833,-0.015777588
2429.127625,1.418777466,0.472610474,-0.067016602
2438.776625,1.261108398,0.395446777,-0.038223267
2448.481625,0.850494385,0.406921387,-0.194763184
2458.142625,0.381149292,0.623550415,-0.33215332
2467.821625,0.30015564,0.816543579,-0.565063477
2477.500625,0.510025024,0.474060059,-0.144897461
2487.178625,0.704879761,0.295684814,0.236663818
2496.852625,0.760757446,0.301330566,0.283889771
2506.554625,0.794036865,0.392990112,0.363189697
2516.231625,0.629669189,0.48828125,0.389144897
2525.892625,0.405456543,0.622009277,0.408035278
2535.586625,0.449127197,0.626998901,0.376571655
2545.264625,0.387588501,0.571258545,0.340194702
2554.929625,0.328414917,0.47366333,0.210357666
2564.622625,0.390441895,0.424484253,0.145431519
2574.300625,0.434020996,0.536956787,0.156173706
2583.977625,0.531616211,0.544876099,0.092834473
2593.654625,0.524276733,0.658859253,0.068664551
2603.327625,0.473709106,0.626358032,0.039337158
2613.011625,0.579605103,0.551422119,0.200531006
2622.690625,0.896789551,0.467300415,0.183166504
2632.349625,1.00227356,0.60395813,0.380355835
2642.049625,1.104446411,0.900924683,0.422821045
2651.728625,1.131591797,1.080200195,0.3984375
2661.402625,1.104293823,1.007202148,0.434265137
2671.084625,1.106201172,0.85585022,0.201934814
2680.760625,0.968490601,0.737243652,0.151199341
2690.427625,0.849822998,0.699478149,0.099884033
2700.115625,0.71887207,0.73260498,0.174987793
2709.794625,0.608047485,0.746047974,0.212020874
2719.465625,0.677001953,0.667922974,-0.049133301
2729.151625,0.581970215,0.730194092,0.190063477
2738.827625,0.627700806,0.733612061,0.199325562
2748.504625,0.611709595,0.745498657,0.234085083
2758.181625,0.598007202,0.758789063,0.207199097
2767.860625,0.725753784,0.738494873,0.169189453
2777.537625,0.739303589,0.779052734,0.285736084
2787.214625,0.68977356,0.796676636,0.238494873
2796.869625,0.742263794,0.723587036,0.100402832
2806.569625,0.765426636,0.659057617,0.179229736
2816.246625,0.825668335,0.618743896,0.145675659
2825.896625,0.781387329,0.730789185,0.171066284
2835.602625,0.787689209,0.718276978,0.144821167
2845.280625,0.722259521,0.653961182,0.18119812
2854.946625,0.693252563,0.721237183,0.216583252
2864.635625,0.727783203,0.753326416,0.211898804
2874.315625,0.730178833,0.712249756,0.203567505
2883.994625,0.669296265,0.695419312,0.224807739
2893.673625,0.695495605,0.643264771,0.158157349
2903.336625,0.690658569,0.651947021,0.131393433
2913.020625,0.658721924,0.687149048,0.09828186
2922.693625,0.608612061,0.732711792,0.099990845
2932.367625,0.549118042,0.769760132,0.09211731
2942.063625,0.518417358,0.822509766,0.080276489
2951.727625,0.498672485,0.835601807,0.058074951
2961.420625,0.511932373,0.829376221,0.045013428
2971.086625,0.533172607,0.823486328,0.075332642
2980.770625,0.548370361,0.81602478,0.115356445
2990.442625,0.583572388,0.821746826,0.147705078
3000.141625,0.618453979,0.850280762,0.153320313
3009.820625,0.61138916,0.892608643,0.161819458
3019.490625,0.638931274,0.927780151,0.161300659
3029.176625,0.660400391,0.976760864,0.179992676
3038.856625,0.633087158,0.973953247,0.206878662
3048.533625,0.606887817,0.987197876,0.247848511
3058.211625,0.56036377,1.040740967,0.369171143
3067.865625,0.51802063,0.952178955,0.360275269
3077.566625,0.463531494,0.861557007,0.211349487
3087.244625,0.495681763,0.714996338,0.15385437
3096.918625,0.529159546,0.484436035,0.102249146
3106.600625,0.545349121,0.328704834,0.080322266
3116.278625,0.590362549,0.384552002,0.039993286
3125.940625,0.649108887,0.469680786,0.037078857
3135.636625,0.719955444,0.545501709,0.052947998
3145.315625,0.723129272,0.733139038,0.096557617
3154.985625,0.747161865,0.78944397,0.098968506
3164.675625,0.751449585,0.747741699,0.11706543
3174.353625,0.718536377,0.756271362,0.108200073
3184.027625,0.650878906,0.700561523,0.077072144
3193.712625,0.706893921,0.598327637,0.056854248
3203.394625,0.784637451,0.547912598,0.097106934
3213.071625,0.677810669,0.554595947,0.12512207
3222.750625,0.563201904,0.609466553,0.110580444
3232.428625,0.1118927,0.853851318,0.10319519
3242.108625,0.01802063,0.888153076,0.11151123
3251.786625,-0.063903809,0.94102478,0.21697998
3261.436625,-0.17250061,1.149856567,0.164978027
3271.124625,-0.401367188,1.493652344,0.333953857
3280.798625,0.018997192,1.719833374,0.228988647
3290.470625,0.415710449,1.568725586,-0.146636963
3300.175625,0.508926392,0.968231201,-0.119949341
3309.860625,0.360122681,0.94543457,0.00163269
3319.529625,0.312942505,1.006195068,0.062637329
3329.217625,0.246322632,1.021408081,0.082397461
3338.894625,0.185287476,1.038803101,0.091384888
3348.572625,0.216995239,0.750930786,0.10194397
3358.249625,0.404922485,0.817260742,0.230926514
3367.914625,0.503967285,0.897781372,0.298797607
3377.604625,0.456222534,0.871582031,0.228988647
3387.283625,0.422683716,0.920333862,0.163467407
3396.936625,0.361129761,0.976669312,0.150421143
3406.638625,0.301620483,0.978317261,0.109909058
3416.317625,0.314727783,0.967102051,0.082092285
3425.990625,0.334747314,0.977279663,0.113418579
3435.663625,0.33152771,0.980545044,0.130584717
3445.337625,0.331542969,0.982650757,0.137802124
3455.017625,0.327560425,0.979217529,0.147323608
3464.701625,0.334075928,0.954193115,0.146636963
3474.366625,0.368026733,0.933456421,0.148696899
3484.045625,0.36882019,0.913421631,0.149230957
3493.725625,0.330703735,0.890594482,0.143798828
3503.404625,0.313827515,0.898376465,0.123962402
3513.094625,0.278076172,0.926589966,0.095565796
3522.779625,0.243484497,0.916122437,0.110794067
3532.456625,0.214279175,0.91847229,0.142120361
3542.108625,0.193984985,0.909729004,0.146224976
3551.811625,0.193008423,0.931549072,0.146194458
3561.487625,0.261962891,0.937026978,0.138687134
3571.169625,0.403839111,0.957550049,0.183395386
3580.835625,0.616500854,1.006027222,0.179412842
3590.509625,0.688049316,0.95085144,0.152053833
3600.509625,0.517105103,0.930221558,0.132141113
3610.124625,0.4012146,0.917068481,0.133285522
3619.802625,0.348022461,0.944366455,0.149932861
3629.486625,0.374740601,0.997680664,0.15864563
3639.176625,0.375030518,0.968704224,0.133850098
3648.833625,0.307281494,0.915115356,0.113647461
3658.507625,0.27041626,0.9168396,0.161346436
3668.213625,0.223464966,0.854904175,0.203979492
3677.890625,0.209259033,0.931427002,0.22845459
3687.558625,0.173522949,0.912277222,0.219299316
3697.245625,0.123901367,0.836654663,0.193099976
3706.922625,0.279067993,0.735214233,0.102005005
3716.591625,0.416595459,0.728973389,0.1068573
3726.278625,0.356414795,0.639816284,0.067810059
3735.956625,0.287017822,0.754104614,0.02583313
3745.633625,0.250076294,0.872268677,0.05241394
3755.313625,0.252868652,0.966049194,0.120193481
3764.991625,0.29397583,1.020370483,0.178588867
3774.665625,0.301376343,1.100708008,0.227035522
3784.348625,0.270721436,1.14225769,0.231536865
3794.005625,0.235992432,1.120498657,0.178039551
3803.703625,0.221984863,1.066299438,0.140350342
3813.383625,0.234634399,0.985687256,0.120285034
3823.035625,0.259674072,0.866699219,0.105041504
3832.741625,0.267532349,0.812072754,0.108123779
3842.419625,0.246795654,0.835479736,0.111419678
3852.080625,0.215286255,0.86630249,0.116241455
3861.710625,0.1771698,0.873214722,0.110946655
3871.388625,0.145187378,0.892990112,0.077789307
3881.056625,0.16343689,0.900558472,0.067352295
3890.745625,0.176483154,0.870605469,0.052871704
3900.421625,0.177627563,0.817611694,0.036178589
3910.093625,0.190414429,0.823974609,0.063766479
3919.779625,0.244216919,0.84022522,0.05960083
3929.457625,0.281387329,0.83114624,0.05317688
3939.136625,0.30456543,0.823135376,0.05947876
3948.814625,0.340286255,1.057235718,0.01763916
3958.493625,0.337051392,1.104278564,0.065505981
3968.170625,0.3230896,0.971908569,0.072784424
3977.849625,0.278686523,0.835174561,0.044921875
3987.499625,0.241149902,0.795532227,0.015792847
3997.205625,0.209823608,0.895462036,0.031890869
4006.882625,0.181488037,1.05632019,0.03793335
4016.561625,0.218566895,1.000396729,0.056564331
4026.235625,0.259109497,0.903823853,0.033325195
4035.917625,0.231384277,0.960235596,-0.018936157
4045.570625,0.206329346,1.018356323,-0.040725708
4055.273625,0.254104614,1.050369263,-0.031860352
4064.936625,0.24206543,1.002807617,-0.036224365
4074.624625,0.221694946,0.93762207,-0.053924561
4084.287625,0.211608887,1.042678833,0.008560181
4093.986625,0.186584473,1.149703979,0.051254272
4103.650625,0.170043945,1.020980835,-0.003219604
4113.338625,0.171905518,1.007659912,0.011230469
4122.999625,0.160018921,1.002990723,0.02645874
4132.693625,0.092849731,0.97114563,0.021469116
4142.370625,0.108001709,1.078948975,-0.085449219
4152.047625,0.157012939,1.235977173,-0.077880859
4161.697625,0.178619385,1.262634277,-0.007583618
4171.399625,0.19078064,1.218475342,-0.0052948
4181.074625,0.205963135,1.138336182,-0.023727417
4190.739625,0.215759277,1.087402344,-0.046188354
4200.419625,0.222976685,1.0650177,-0.053573608
4210.087625,0.214019775,1.086547852,-0.048324585
4219.774625,0.198165894,1.081954956,-0.058364868
4229.457625,0.194473267,1.040328979,-0.062057495
4239.121625,0.186721802,1.033737183,-0.060638428
4248.822625,0.170318604,0.999008179,-0.045074463
4258.476625,0.134674072,0.927032471,-0.036407471
4268.173625,0.10710144,0.860473633,-0.022476196
4277.850625,0.07232666,0.797744751,-0.021743774
4287.505625,0.057998657,0.802307129,-0.035095215
4297.203625,0.048095703,0.774078369,-0.034881592
4306.867625,0.038269043,0.808944702,-0.047851563
4316.535625,0.045074463,0.934814453,-0.088119507
4326.236625,0.081314087,0.941619873,-0.08921814
4335.912625,0.023269653,0.857818604,-0.092697144
4345.563625,0.043685913,1.000183105,-0.084777832
4355.267625,0.146133423,1.162246704,-0.086013794
4364.944625,0.117630005,1.209564209,-0.051345825
4374.613625,0.045471191,1.225906372,-0.082015991
4384.300625,-0.012695313,1.197891235,-0.135726929
4393.978625,-0.050033569,1.176239014,-0.134277344
4403.655625,-0.053146362,1.174194336,-0.105255127
4413.333625,-0.031600952,1.169265747,-0.110794067
4423.010625,-0.024139404,1.142791748,-0.086120605
4432.681625,-0.023010254,1.115585327,-0.07975769
4442.363625,-0.034332275,1.066970825,-0.088378906
4452.039625,-0.025741577,1.039474487,-0.08493042
4461.719625,-0.03616333,1.028640747,-0.09828186
4471.398625,-0.052383423,1.022872925,-0.101028442
4481.046625,-0.063156128,1.026535034,-0.100387573
4490.752625,-0.06539917,1.018112183,-0.104217529
4500.428625,-0.065322876,1.014038086,-0.108581543
4510.084625,-0.066482544,0.999481201,-0.113998413
4519.782625,-0.068832397,0.982574463,-0.126373291
4529.461625,-0.072891235,0.971008301,-0.132385254
4539.132625,-0.074783325,0.958099365,-0.134185791
4548.816625,-0.08454895,0.951339722,-0.138473511
4558.494625,-0.084213257,0.948944092,-0.140686035
4568.170625,-0.095199585,0.932952881,-0.149093628
4577.847625,-0.078186035,0.928192139,-0.161178589
4587.507625,-0.089279175,0.900283813,-0.136779785
4597.201625,-0.100265503,0.904983521,-0.12487793
4606.878625,-0.073562622,0.883071899,-0.147659302
4616.554625,-0.089294434,0.843643188,-0.117767334
4626.203625,-0.067092896,0.814208984,-0.142944336
4635.906625,-0.076477051,0.780044556,-0.118331909
4645.582625,-0.060394287,0.74836731,-0.104675293
4655.234625,-0.03894043,0.737091064,-0.116348267
4664.930625,-0.031936646,0.711959839,-0.127288818
4674.592625,-0.020751953,0.700790405,-0.136260986
4684.270625,-0.021270752,0.636520386,-0.140167236
4693.948625,-0.023071289,0.586715698,-0.152938843
4703.627625,-0.03314209,0.55619812,-0.177322388
4713.300625,-0.040802002,0.462493896,-0.197555542
4722.979625,-0.039703369,0.355484009,-0.020996094
4732.671625,-0.113708496,0.367507935,0.00642395
4742.347625,-0.152145386,0.365539551,0.071151733
4751.998625,-0.163726807,0.613555908,0.046707153
4761.702625,-0.247238159,1.733520508,0.049163818
4771.380625,-0.500762939,3.273376465,0.1824646
4781.049625,-0.651229858,3.649337769,0.089691162
4790.733625,-0.451477051,2.016952515,-0.083007813
4800.412625,-0.401748657,1.138565063,-0.101379395
4810.061625,-0.458465576,0.761413574,-0.048400879
4819.768625,-0.522750854,0.684051514,-0.047668457
4829.444625,-0.544799805,0.700942993,-0.051147461
4839.116625,-0.546112061,0.781326294,-0.015853882
4848.798625,-0.572402954,0.858016968,0.011138916
4858.476625,-0.598373413,0.891159058,0.005447388
4868.154625,-0.57749939,0.843902588,-0.043045044
4877.832625,-0.573669434,0.86390686,-0.048461914
4887.509625,-0.531295776,0.896118164,-0.0443573
4897.188625,-0.468353271,0.881484985,-0.041320801
4906.867625,-0.431137085,0.878921509,-0.04006958
4916.517625,-0.404312134,0.873535156,-0.055892944
4926.220625,-0.374984741,0.852615356,-0.073989868
4935.898625,-0.367279053,0.841949463,-0.074401855
4945.569625,-0.379394531,0.85736084,-0.068847656
4955.252625,-0.406036377,0.918182373,-0.06211853
4964.924625,-0.42477417,0.974029541,-0.068954468
4974.600625,-0.446914673,1.032928467,-0.077346802
4984.284625,-0.451416016,1.036392212,-0.0806427
4993.962625,-0.439407349,1.011611938,-0.084976196
5003.633625,-0.429626465,0.976119995,-0.081481934
5013.318625,-0.418533325,0.941802979,-0.074249268
5022.995625,-0.405181885,0.928085327,-0.067626953
5032.673625,-0.388626099,0.906539917,-0.063537598
5042.350625,-0.373062134,0.896102905,-0.060256958
5052.027625,-0.362442017,0.893783569,-0.057540894
5061.704625,-0.359451294,0.897094727,-0.060317993
5071.384625,-0.359298706,0.9009552,-0.061752319
5081.037625,-0.368011475,0.921203613,-0.050262451
5090.722625,-0.375427246,0.957611084,-0.0677948
5100.421625,-0.366333008,0.960494995,-0.080963135
5110.098625,-0.350784302,0.952941895,-0.092300415
5119.780625,-0.317184448,0.886810303,-0.095703125
5129.433625,-0.337234497,0.899536133,-0.086303711
5139.110625,-0.328384399,0.922622681,-0.103027344
5148.819625,-0.326950073,0.940078735,-0.115097046
5158.489625,-0.30821228,0.941146851,-0.122756958
5168.160625,-0.288284302,0.941833496,-0.115585327
5177.791625,-0.278625488,0.939666748,-0.101135254
5187.471625,-0.261001587,0.937423706,-0.093322754
5197.141625,-0.255447388,0.917205811,-0.09413147
5206.829625,-0.255401611,0.938705444,-0.078918457
5216.504625,-0.257141113,0.940002441,-0.07800293
5226.189625,-0.254882813,0.948959351,-0.074935913
5235.867625,-0.253860474,0.963790894,-0.078521729
5245.523625,-0.269119263,0.964111328,-0.084884644
5255.215625,-0.28717041,0.94732666,-0.085296631
5264.884625,-0.302581787,0.926513672,-0.079864502
5274.558625,-0.319946289,0.913619995,-0.075469971
5284.263625,-0.338119507,0.907653809,-0.072311401
5293.935625,-0.344528198,0.890609741,-0.077163696
5303.617625,-0.355255127,0.898880005,-0.086425781
5313.281625,-0.361968994,0.909820557,-0.087173462
5322.958625,-0.367462158,0.924087524,-0.082275391
5332.627625,-0.365386963,0.937637329,-0.074554443
5342.332625,-0.356277466,0.95098877,-0.053909302
5352.009625,-0.342773438,0.953781128,-0.021789551
5361.678625,-0.322341919,0.945632935,-0.008605957
5371.335625,-0.310180664,0.905715942,0.001312256
5381.042625,-0.31187439,0.874694824,0.011459351
5390.719625,-0.332305908,0.883178711,0.013061523
5400.394625,-0.36567688,0.92956543,-0.010772705
5410.071625,-0.388809204,0.969421387,-0.039398193
5419.749625,-0.404846191,1.001876831,-0.060974121
5429.428625,-0.422393799,1.027267456,-0.073257446
5439.083625,-0.436141968,1.041290283,-0.077468872
5448.784625,-0.449035645,1.039520264,-0.074905396
5458.461625,-0.452041626,1.020141602,-0.080032349
5468.132625,-0.441894531,0.99269104,-0.101013184
5477.815625,-0.429656982,0.976531982,-0.118453979
5487.494625,-0.410858154,0.980911255,-0.118545532
5497.158625,-0.364547729,0.985397339,-0.100585938
5506.850625,-0.341674805,0.974136353,-0.086257935
5516.526625,-0.355941772,0.934539795,-0.069778442
5526.190625,-0.388977051,0.870544434,-0.052337646
5535.883625,-0.415206909,0.833145142,-0.039291382
5545.559625,-0.433181763,0.821304321,-0.042984009
5555.237625,-0.438980103,0.831420898,-0.039382935
5564.915625,-0.433959961,0.856521606,-0.03666687
5574.578625,-0.414840698,0.889831543,-0.043136597
5584.270625,-0.381759644,0.922470093,-0.041488647
5593.945625,-0.342926025,0.948379517,-0.037872314
5603.604625,-0.327819824,0.969940186,-0.026626587
5613.298625,-0.33114624,0.971511841,-0.023864746
5622.972625,-0.344406128,0.971191406,-0.043533325
5632.626625,-0.354522705,0.964004517,-0.062744141
5642.332625,-0.353546143,0.94543457,-0.049407959
5652.010625,-0.357147217,0.928588867,-0.038619995
5661.678625,-0.361602783,0.913070679,-0.03565979
5671.365625,-0.375976563,0.899139404,-0.035079956
5681.042625,-0.391830444,0.889083862,-0.024169922
5690.701625,-0.402023315,0.885513306,-0.020080566
5700.398625,-0.409591675,0.888870239,-0.018493652
5710.076625,-0.403152466,0.898071289,-0.018508911
5719.752625,-0.383712769,0.907958984,-0.005371094
5729.429625,-0.361724854,0.917327881,0.002349854
5739.106625,-0.345993042,0.929672241,0.008331299
5748.757625,-0.346893311,0.943237305,0.017486572
5758.431625,-0.351119995,0.945587158,0.021057129
5768.124625,-0.363510132,0.936294556,0.013183594
5777.794625,-0.369415283,0.928451538,0.010482788
5787.478625,-0.384811401,0.927215576,0.015899658
5797.167625,-0.395523071,0.927642822,0.023452759
5806.836625,-0.406356812,0.934204102,0.022079468
5816.514625,-0.406677246,0.937683105,0.025650024
5826.195625,-0.390823364,0.949707031,0.049209595
5835.887625,-0.366439819,0.951980591,0.080749512
5845.566625,-0.342727661,0.952941895,0.107711792
5855.243625,-0.3331604,0.959243774,0.120956421
5864.921625,-0.3309021,0.9634552,0.115280151
5874.599625,-0.332473755,0.967163086,0.086486816
5884.277625,-0.321350098,0.961776733,0.058990479
5893.955625,-0.305343628,0.958984375,0.063018799
5903.606625,-0.278198242,0.964431763,0.064498901
5913.308625,-0.257171631,0.967102051,0.042709351
5922.987625,-0.212203979,0.947021484,0.031860352
5932.644625,-0.126358032,0.931518555,0.094650269
5942.341625,-0.048965454,0.921218872,0.186752319
5952.020625,-0.018630981,0.951934814,0.245071411
5961.694625,-0.045181274,1.05430603,0.296463013
5971.375625,-0.103347778,1.12701416,0.354171753
5981.054625,-0.147506714,1.162704468,0.351303101
5990.725625,-0.190795898,1.121109009,0.270401001
6000.409625,-0.258483887,1.109375,0.22694397
6010.085625,-0.348373413,1.084655762,0.261138916
6019.763625,-0.461868286,1.023483276,0.299057007
6029.415625,-0.520507813,0.9634552,0.236618042
6039.118625,-0.585525513,0.957733154,0.134628296
6048.795625,-0.605300903,0.892776489,0.066772461
6058.471625,-0.564788818,0.775375366,0.018325806
6068.142625,-0.470657349,0.628509521,-0.040084839
6077.825625,-0.429260254,0.565200806,-0.092407227
6087.504625,-0.437286377,0.620864868,-0.159210205
6097.164625,-0.435058594,0.755630493,-0.160202026
6106.861625,-0.343185425,0.922134399,-0.111434937
6116.539625,-0.221908569,1.050369263,-0.067733765
6126.209625,-0.145690918,1.170516968,0.023635864
6135.894625,-0.113632202,1.215255737,0.074432373
6145.572625,-0.172714233,1.238174438,0.072998047
6155.229625,-0.274795532,1.236099243,0.04258728
6164.844542,-0.342926025,1.19909668,-0.007720947
6174.503542,-0.333892822,1.139282227,-0.036087036
6184.199542,-0.287857056,1.07434082,-0.038833618
6193.877542,-0.24647522,1.01512146,-0.019744873
6203.526542,-0.224807739,0.980651855,0.002624512
6213.234542,-0.217773438,0.948669434,0.04699707
6222.904542,-0.232498169,0.946182251,0.11227417
6232.579542,-0.264923096,0.951263428,0.181472778
6242.198542,-0.299682617,0.966339111,0.231933594
6251.876542,-0.354003906,0.968429565,0.261688232
6261.523542,-0.397064209,0.959823608,0.290725708
6271.227542,-0.413879395,0.985275269,0.333465576
6280.903542,-0.417861938,1.026107788,0.362976074
6290.577542,-0.42175293,1.048095703,0.340942383
6300.261542,-0.442108154,1.055603027,0.263458252
6309.937542,-0.458587646,1.047561646,0.186019897
6319.598542,-0.467453003,1.035751343,0.120697021
6329.293542,-0.450149536,1.032165527,0.070068359
6338.946542,-0.408126831,1.013977051,0.051940918
6348.644542,-0.339324951,0.999008179,0.057815552
6358.325542,-0.263015747,1.032409668,0.092666626
6367.989542,-0.210922241,1.112030029,0.141769409
6377.680542,-0.192337036,1.180130005,0.155258179
6387.362542,-0.188552856,1.233215332,0.097351074
6397.023542,-0.188491821,1.242202759,-0.042556763
6406.693542,-0.17805481,1.211410522,-0.163238525
6416.381542,-0.159011841,1.195892334,-0.244232178
6426.075542,-0.134979248,1.17350769,-0.275634766
6435.737542,-0.112030029,1.141174316,-0.30770874
6445.432542,-0.0962677,1.099578857,-0.332260132
6455.096542,-0.085739136,1.04234314,-0.343521118
6464.787542,-0.079040527,0.968566895,-0.322113037
6474.464542,-0.048156738,0.864151001,-0.263717651
6484.118542,-0.040222168,0.817382813,-0.1822052
6493.817542,-0.026535034,0.797775269,0.043823242
6503.494542,0.057876587,0.801422119,0.564376831
6513.158542,-0.130859375,0.881072998,-0.283447266
6522.847542,-0.338424683,0.989303589,-0.225463867
6532.526542,-0.508453369,1.212509155,-0.145553589
6542.204542,-0.600738525,1.342224121,0.143249512
6551.882542,-0.651138306,1.381408691,0.36831665
6561.542542,-0.680053711,1.395355225,0.647033691
6571.238542,-0.669998169,1.497131348,0.896881104
6580.915542,-0.59161377,1.664413452,0.778549194
6590.564542,-0.433670044,1.70942688,0.312561035
6600.271542,-0.211715698,1.594390869,-0.20954895
6609.943542,-0.209747314,1.510543823,-0.491104126
6619.616542,-0.459518433,1.361541748,-0.320480347
6629.306542,-0.564208984,1.230224609,-0.261444092
6638.984542,-0.615234375,1.074737549,-0.106185913
6648.653542,-0.540802002,0.942840576,0.025924683
6658.340542,-0.441085815,0.85949707,0.06086731
6668.019542,-0.340103149,0.813034058,0.083282471
6677.695542,-0.238845825,0.760528564,0.083831787
6687.366542,-0.176742554,0.737991333,0.067016602
6697.053542,-0.180328369,0.747421265,0.072174072
6706.732542,-0.178070068,0.74798584,0.087402344
6716.411542,-0.22064209,0.714172363,0.100723267
6726.090542,-0.262573242,0.68447876,0.104660034
6735.770542,-0.279403687,0.597854614,0.107315063
6745.447542,-0.271514893,0.512527466,0.104827881
6755.115542,-0.263671875,0.385559082,0.093658447
6764.804542,-0.281448364,0.273376465,0.111618042
6774.483542,-0.299972534,0.203460693,0.128967285
6784.137542,-0.341644287,0.130126953,0.116638184
6793.841542,-0.362686157,0.072814941,0.074417114
6803.520542,-0.360961914,0.066238403,0.006408691
6813.186542,-0.319900513,0.073684692,-0.057418823
6822.877542,-0.239303589,0.123657227,-0.112762451
6832.554542,-0.140289307,0.243469238,-0.27671814
6842.212542,-0.056747437,0.408508301,-0.460968018
6851.886542,0.042938232,0.664749146,-0.691238403
6861.590542,0.124343872,1.042648315,-0.842132568
6871.272542,0.170318604,1.657699585,-1.059265137
6880.930542,-0.007080078,2.615127563,-1.243988037
6890.613542,-0.402069092,3.394378662,-1.111373901
6900.288542,-0.420455933,3.150375366,-0.810317993
6909.969542,-0.160064697,2.303344727,-0.709472656
6919.635542,0.078735352,1.567779541,-0.680084229
6929.342542,0.152267456,0.996704102,-0.64553833
6939.019542,0.188369751,0.500411987,-0.539398193
6948.679542,0.209320068,0.038330078,-0.220733643
6958.374542,0.096572876,-0.092330933,0.013916016
6968.051542,-0.163146973,0.226287842,0.037353516
6977.723542,-0.401199341,0.571243286,-0.003860474
6987.408542,-0.513397217,0.769241333,-0.005142212
6997.086542,-0.502853394,0.857208252,-0.018173218
7006.765542,-0.395141602,0.901123047,0.004653931
7016.436542,-0.248016357,0.977630615,0.009216309
7026.111542,-0.240112305,1.165786743,-0.17805481
7035.799542,-0.451171875,1.269577026,-0.466506958
7045.480542,-0.713806152,1.220687866,-0.67388916
7055.133542,-0.827453613,1.10357666,-0.559631348
7064.839542,-0.831039429,0.994613647,-0.217041016
7074.518542,-0.769104004,0.84135437,0.014953613
7084.187542,-0.72605896,0.77947998,0.055465698
7093.860542,-0.656784058,0.802749634,0.131103516
7103.553542,-0.467834473,0.817398071,0.338745117
7113.223542,-0.255157471,0.832305908,0.468063354
7122.910542,-0.104019165,0.82711792,0.497970581
7132.588542,-0.027923584,0.775848389,0.530487061
7142.258542,0.001159668,0.774734497,0.512008667
7151.945542,-0.06098938,0.849807739,0.489593506
7161.609542,-0.123443604,0.912506104,0.420272827
7171.301542,-0.179122925,0.992736816,0.320678711
7180.981542,-0.213928223,1.130767822,0.152740479
7190.657542,-0.240585327,1.299819946,-0.100387573
7200.338542,-0.272949219,1.291824341,-0.223983765
7210.016542,-0.26121521,1.210037231,-0.183929443
7219.684542,-0.303451538,1.156402588,-0.10144043
7229.376542,-0.413024902,1.057815552,-0.074768066
7239.057542,-0.478713989,0.969970703,-0.041809082
7248.708542,-0.49281311,0.872680664,-0.014251709
7258.414542,-0.473434448,0.83430481,0.027359009
7268.094542,-0.408874512,0.81842041,0.153366089
7277.765542,-0.374740601,0.794464111,0.270492554
7287.433542,-0.31729126,0.803665161,0.198257446
7297.129542,-0.238357544,0.819610596,0.163116455
7306.809542,-0.264633179,0.811126709,0.176132202
7316.484542,-0.270828247,0.810562134,0.139984131
7326.163542,-0.147369385,0.824783325,0.192184448
7335.839542,-0.15562439,0.866592407,0.22064209
7345.508542,-0.340759277,0.80657959,0.106323242
7355.199542,-0.298706055,0.769760132,0.063613892
7364.860542,-0.229415894,0.777526855,0.08303833
7374.540542,-0.197769165,0.809066772,0.100997925
7384.234542,-0.225906372,0.904174805,0.072418213
7393.914542,-0.303939819,1.029800415,0.030975342
7403.592542,-0.373214722,1.100311279,-0.010635376
7413.260542,-0.440185547,1.117279053,-0.041000366
7422.932542,-0.480148315,1.084411621,-0.068572998
7432.628542,-0.464645386,1.078063965,-0.06300354
7442.299542,-0.408401489,1.120269775,-0.003509521
7451.984542,-0.319320679,1.153503418,0.067230225
7461.663542,-0.224807739,1.147293091,0.097976685
7471.340542,-0.155151367,1.163528442,0.095046997
7481.017542,-0.081573486,1.187744141,0.09413147
7490.694542,-0.00352478,1.182495117,0.137435913
7500.354542,0.042236328,1.165237427,0.2134552
7510.049542,0.03527832,1.196182251,0.25402832
7519.703542,-0.027496338,1.225601196,0.25062561
7529.404542,-0.106643677,1.219497681,0.194244385
7539.082542,-0.191864014,1.227401733,0.112121582
7548.738542,-0.263793945,1.280990601,0.04057312
7558.436542,-0.29826355,1.359970093,-0.030212402
7568.111542,-0.316818237,1.436019897,-0.120819092
7577.773542,-0.302856445,1.469924927,-0.231903076
7587.465542,-0.253051758,1.466171265,-0.334381104
7597.140542,-0.195159912,1.431015015,-0.417404175
7606.821542,-0.146240234,1.338775635,-0.474868774
7616.498542,-0.118423462,1.233795166,-0.503829956
7626.176542,-0.093536377,1.138214111,-0.441848755
7635.853542,-0.062179565,1.014465332,-0.294815063
7645.531542,-0.047912598,0.862457275,-0.117828369
7655.201542,-0.086532593,0.718765259,0.019760132
7664.885542,-0.135696411,0.71434021,0.169250488
7674.562542,-0.25177002,0.823181152,0.24269104
7684.222542,-0.452972412,1.004043579,0.269760132
7693.916542,-0.61088562,1.18888855,0.286270142
7703.570542,-0.692581177,1.282180786,0.334014893
7713.264542,-0.739135742,1.354431152,0.471572876
7722.949542,-0.74420166,1.437072754,0.580963135
7732.627542,-0.715362549,1.495910645,0.619552612
7742.300542,-0.618270874,1.586593628,0.505493164
7751.971542,-0.485351563,1.666748047,0.087005615
7761.662542,-0.482070923,1.523513794,-0.195648193
7771.340542,-0.541671753,1.384857178,-0.235794067
7781.016542,-0.606185913,1.157104492,-0.094406128
7790.668542,-0.570495605,1.000854492,-0.038635254
7800.372542,-0.503845215,0.905029297,0.012573242
7810.046542,-0.348999023,0.783050537,0.113006592
7819.702542,-0.209747314,0.68107605,0.104919434
7829.394542,-0.090438843,0.700363159,0.126831055
7839.082542,-0.052230835,0.711135864,0.134292603
7848.742542,-0.064422607,0.703353882,0.028060913
7858.421542,-0.102462769,0.723770142,0.054870605
7868.098542,-0.186080933,0.733596802,0.143341064
7877.781542,-0.275039673,0.681869507,0.152313232
7887.454542,-0.361160278,0.587783813,0.159255981
7897.147542,-0.461776733,0.533966064,0.202941895
7906.810542,-0.468154907,0.413284302,0.208084106
7916.502542,-0.444717407,0.260299683,0.223007202
7926.180542,-0.417694092,0.143234253,0.224517822
7935.857542,-0.380996704,0.068466187,0.189498901
7945.535542,-0.352111816,0.049667358,0.101379395
7955.197542,-0.308944702,0.067428589,-0.022720337
7964.889542,-0.233840942,0.130630493,-0.144958496
7974.567542,-0.128067017,0.286361694,-0.313751221
7984.241542,-0.009567261,0.461013794,-0.605834961
7993.924542,0.085693359,0.718399048,-0.921813965
8003.603542,0.17527771,1.058227539,-0.857543945
8013.253542,0.178695679,1.514755249,-0.947341919
8022.960542,0.017364502,2.096908569,-1.231842041
8032.639542,-0.327453613,2.685684204,-1.17477417
8042.309542,-0.504119873,2.937011719,-1.039581299
8051.996542,-0.308059692,2.52684021,-0.818725586
8061.674542,-0.084472656,1.841903687,-0.730895996
8071.352542,0.081985474,1.265335083,-0.60446167
8081.030542,0.085296631,0.688613892,-0.374084473
8090.711542,-0.022674561,0.181228638,-0.250061035
8100.388542,-0.210159302,0.020309448,-0.106109619
8110.067542,-0.380493164,0.172119141,-0.114059448
8119.739542,-0.434310913,0.386627197,-0.118148804
8129.425542,-0.396026611,0.592910767,-0.085739136
8139.103542,-0.272262573,0.745697021,0.010269165
8148.762542,-0.160614014,0.871261597,0.15447998
8158.435542,-0.178710938,1.031051636,0.159225464
8168.137542,-0.33392334,1.139984131,0.039230347
8177.815542,-0.593032837,1.181732178,-0.205230713
8187.495542,-0.863754272,1.236999512,-0.29574585
8197.173542,-1.01550293,1.299072266,-0.220413208
8206.844542,-0.961334229,1.200012207,-0.038879395
8216.528542,-0.785598755,1.027084351,0.203552246
8226.196542,-0.590591431,0.901077271,0.4347229
8235.870542,-0.405700684,0.802368164,0.542694092
8245.542542,-0.22076416,0.747680664,0.553878784
8255.237542,-0.063735962,0.692489624,0.598510742
8264.917542,-0.011169434,0.702987671,0.66305542
8274.595542,-0.033691406,0.819610596,0.714889526
8284.258542,-0.152816772,1.020370483,0.654632568
8293.947542,-0.171005249,1.15032959,0.392990112
8303.632542,-0.14151001,1.297851563,-0.057144165
8313.281542,-0.169631958,1.290924072,-0.250396729
8322.963542,-0.193954468,1.205657959,-0.227401733
8332.650542,-0.216171265,1.097702026,-0.180297852
8342.320542,-0.270217896,0.96232605,-0.125717163
8352.022542,-0.281005859,0.895004272,-0.103271484
8361.682542,-0.272903442,0.822814941,-0.030380249
8371.362542,-0.276611328,0.799438477,0.116073608
8381.040542,-0.287826538,0.810058594,0.241912842
8390.717542,-0.281341553,0.880264282,0.304626465
8400.396542,-0.236312866,0.946838379,0.275726318
8410.091542,-0.259292603,0.962753296,0.260513306
8419.757542,-0.454910278,0.930603027,0.126190186
8429.447542,-0.496398926,0.802978516,0.015380859
8439.125542,-0.5128479,0.750549316,-0.063293457
8448.779542,-0.477661133,0.789657593,-0.118453979
8458.481542,-0.38319397,0.793899536,-0.102127075
8468.159542,-0.308059692,0.792953491,-0.034072876
8477.811542,-0.265914917,0.831619263,0.026702881
8487.517542,-0.241149902,0.883361816,0.097595215
8497.194542,-0.257064819,0.941818237,0.11227417
8506.864542,-0.287963867,0.972137451,0.051742554
8516.528542,-0.315689087,0.961456299,-0.020904541
8526.226542,-0.295974731,0.978271484,-0.086044312
8535.904542,-0.235458374,1.00340271,-0.090179443
8545.582542,-0.223022461,1.07913208,-0.037017822
8555.260542,-0.232467651,1.137191772,0.031677246
8564.934542,-0.266220093,1.142105103,0.071289063
8574.617542,-0.293304443,1.140136719,0.089004517
8584.294542,-0.276138306,1.182754517,0.090805054
8593.971542,-0.202316284,1.252243042,0.121810913
8603.648542,-0.076843262,1.276138306,0.184249878
8613.299542,0.052124023,1.260452271,0.277023315
8623.003542,0.113525391,1.240036011,0.360031128
8632.681542,0.097549438,1.240203857,0.36479187
8642.342542,0.004150391,1.252212524,0.232452393
8652.036542,-0.1484375,1.320373535,0.108978271
8661.714542,-0.293487549,1.398391724,-0.023590088
8671.378542,-0.378448486,1.413513184,-0.176010132
8681.068542,-0.374130249,1.370727539,-0.293106079
8690.724542,-0.316299438,1.31652832,-0.377655029
8700.422542,-0.242126465,1.266647339,-0.445159912
8710.098542,-0.176086426,1.186019897,-0.459060669
8719.775542,-0.112243652,1.08984375,-0.38609314
8729.453542,-0.050811768,1.001358032,-0.250976563
8739.131542,-0.02192688,0.89390564,-0.091583252
8748.798542,-0.048477173,0.794631958,0.099731445
8758.485542,-0.14289856,0.769622803,0.280075073
8768.164542,-0.260696411,0.777038574,0.359359741
8777.813542,-0.395828247,0.888641357,0.342178345
8787.518542,-0.571884155,1.130737305,0.208328247
8797.188542,-0.728302002,1.353637695,0.112426758
8806.858542,-0.822738647,1.519882202,0.161193848
8816.546542,-0.839935303,1.666915894,0.291702271
8826.218542,-0.842422485,1.80027771,0.399017334
8835.897542,-0.759109497,1.819473267,0.392776489
8845.559542,-0.578765869,1.63369751,0.276367188
8855.235542,-0.484695435,1.492462158,0.12449646
8864.914542,-0.397979736,1.323394775,-0.053726196
8874.594542,-0.358413696,1.224014282,0.082321167
8884.265542,-0.386245728,1.12677002,0.132080078
8893.967542,-0.452880859,1.009033203,0.054824829
8903.647542,-0.463745117,0.899246216,0.06288147
8913.318542,-0.39352417,0.781066895,0.056625366
8922.977542,-0.272064209,0.666183472,0.079406738
8932.680542,-0.163833618,0.613265991,0.117797852
8942.331542,-0.087112427,0.644546509,0.147384644
8952.036542,-0.060394287,0.680053711,0.180404663
8961.713542,-0.040008545,0.696472168,0.224090576
8971.384542,-0.111801147,0.721511841,0.258834839
8981.068542,-0.248443604,0.686676025,0.218795776
8990.747542,-0.33984375,0.577484131,0.237426758
9000.425542,-0.415130615,0.49118042,0.275924683
9010.103542,-0.474197388,0.348114014,0.334411621
9019.781542,-0.504196167,0.193695068,0.354568481
9029.460542,-0.490142822,0.083068848,0.32649231
9039.136542,-0.429885864,0.061233521,0.252838135
9048.816542,-0.366821289,0.105041504,0.100509644
9058.494542,-0.311920166,0.227264404,-0.087783813
9068.173542,-0.217788696,0.345809937,-0.288848877
9077.839542,-0.11428833,0.457504272,-0.440704346
9087.530542,0.003311157,0.542999268,-0.542739868
9097.209542,0.097305298,0.66569519,-0.7265625
9106.883542,0.151977539,0.841156006,-0.973999023
9116.565542,0.147949219,1.097366333,-1.089080811
9126.243542,0.030166626,1.50088501,-1.267318726
9135.914542,-0.167297363,2.107849121,-1.251235962
9145.600542,-0.340682983,2.687789917,-1.062133789
9155.279542,-0.336502075,2.861907959,-0.908309937
9164.958542,-0.167556763,2.373306274,-0.828109741
9174.609542,-0.000656128,1.692977905,-0.778182983
9184.313542,0.059463501,1.094848633,-0.600021362
9193.991542,-0.077926636,0.515029907,-0.293197632
9203.670542,-0.311325073,0.1197052,-0.170913696
9213.337542,-0.421920776,0.142669678,-0.06211853
9223.026542,-0.47958374,0.330627441,-0.173065186
9232.705542,-0.458984375,0.478302002,-0.219787598
9242.358542,-0.394104004,0.62387085,-0.177581787
9252.062542,-0.247512817,0.83265686,0.007049561
9261.740542,-0.159698486,1.102203369,0.131271362
9271.410542,-0.221679688,1.292678833,0.090103149
9281.089542,-0.40461731,1.272766113,-0.003448486
9290.760542,-0.650497437,1.142852783,-0.077331543
9300.428542,-0.797821045,1.042541504,-0.050048828
9310.131542,-0.817733765,0.950302124,-0.02331543
9319.805542,-0.756759644,0.917221069,0.094177246
9329.486542,-0.632141113,0.904556274,0.332015991
9339.161542,-0.459365845,0.888366699,0.555938721
9348.834542,-0.292877197,0.847625732,0.629211426
9358.520542,-0.152877808,0.808364868,0.633682251
9368.182542,-0.054962158,0.805587769,0.649688721
9377.873542,-0.075393677,0.897888184,0.655334473
9387.538542,-0.12121582,1.015609741,0.60144043
9397.219542,-0.145385742,1.09828186,0.499465942
9406.906542,-0.145675659,1.222549438,0.25541687
9416.576542,-0.109344482,1.279953003,-0.073059082
9426.270542,-0.161880493,1.162200928,-0.132568359
9435.935542,-0.269500732,1.024368286,-0.052017212
9445.628542,-0.36100769,0.910186768,-0.038208008
9455.306542,-0.407470703,0.818344116,-0.126571655
9464.983542,-0.39881897,0.758468628,-0.216156006
9474.662542,-0.381774902,0.694702148,-0.179733276
9484.332542,-0.316741943,0.709365845,0.01890564
9494.018542,-0.243545532,0.757247925,0.296813965
9503.697542,-0.162826538,0.830383301,0.370895386
9513.354542,-0.152740479,0.837814331,0.282424927
9523.054542,-0.197021484,0.825454712,0.228485107
9532.733542,-0.278549194,0.87538147,0.149963379
9542.407542,-0.395507813,0.952896118,0.112060547
9552.090542,-0.463424683,0.972076416,-0.004272461
9561.769542,-0.473022461,0.931716919,-0.06968689
9571.437542,-0.456741333,0.881134033,-0.072097778
9581.119542,-0.446640015,0.862060547,-0.044540405
9590.805542,-0.468841553,0.879043579,0.008117676
9600.475542,-0.435928345,0.943389893,0.069274902
9610.159542,-0.363616943,1.056106567,0.079162598
9619.839542,-0.262069702,1.124954224,0.028762817
9629.517542,-0.161270142,1.095901489,-0.036941528
9639.197542,-0.08744812,1.073074341,-0.061721802
9648.877542,-0.042053223,1.088867188,-0.076858521
9658.554542,-0.060028076,1.100784302,-0.058868408
9668.236542,-0.092300415,1.127761841,0.021728516
9677.905542,-0.095596313,1.175262451,0.1381073
9687.592542,-0.065124512,1.242034912,0.248474121
9697.270542,-0.01020813,1.277374268,0.344223022
9706.927542,0.017974854,1.332946777,0.420761108
9716.565542,0.00920105,1.382736206,0.429382324
9726.243542,-0.050872803,1.352874756,0.233703613
9735.902542,-0.177505493,1.239242554,-0.023040771
9745.601542,-0.330627441,1.195755005,-0.200912476
9755.279542,-0.428634644,1.261901855,-0.281707764
9764.955542,-0.463562012,1.349578857,-0.27520752
9774.634542,-0.42326355,1.378814697,-0.285598755
9784.312542,-0.317092896,1.320358276,-0.336425781
9793.981542,-0.207382202,1.240631104,-0.389389038
9803.668542,-0.09046936,1.167526245,-0.414260864
9813.346542,0.009262085,1.101150513,-0.39805603
9823.025542,0.073074341,1.057891846,-0.313232422
9832.699542,0.091064453,1.016525269,-0.180786133
9842.384542,0.050094604,0.978057861,-0.014419556
9852.063542,-0.017028809,1.007720947,0.181549072
9861.742542,-0.138137817,1.099334717,0.342590332
9871.401542,-0.377792358,1.208343506,0.368911743
9881.100542,-0.656692505,1.308898926,0.327758789
9890.749542,-0.837478638,1.432891846,0.361083984
9900.444542,-0.925354004,1.57069397,0.417312622
9910.136542,-0.950149536,1.667861938,0.430908203
9919.802542,-0.895446777,1.634536743,0.409500122
9929.465542,-0.766220093,1.450164795,0.336578369
9939.146542,-0.566299438,1.28968811,0.206512451
9948.828542,-0.396179199,1.290496826,0.071578979
9958.532542,-0.394958496,1.313674927,-0.017364502
9968.191542,-0.4012146,1.14642334,0.057159424
9977.871542,-0.377929688,1.122451782,0.117385864
9987.565542,-0.454406738,0.972183228,0.103118896
9997.229542,-0.396453857,0.854125977,0.095077515
10006.90954,-0.301620483,0.779434204,0.106140137
10016.60454,-0.176803589,0.689880371,0.120635986
10026.28354,-0.037979126,0.724456787,0.161773682
10035.94754,0.042388916,0.743728638,0.18598938
10045.63954,0.024978638,0.661056519,0.185623169
10055.31854,-0.065734863,0.651779175,0.180252075
10064.97454,-0.202026367,0.689102173,0.205780029
10074.67754,-0.33480835,0.619445801,0.252853394
10084.35654,-0.459289551,0.492980957,0.302261353
10094.01654,-0.545684814,0.346725464,0.366073608
10103.71454,-0.569137573,0.179611206,0.38067627
10113.39354,-0.53326416,0.052062988,0.344512939
10123.06654,-0.450469971,-0.029678345,0.216888428
10132.75154,-0.356719971,-0.012756348,0.061599731
10142.43154,-0.273025513,0.062637329,-0.116973877
10152.10854,-0.169036865,0.176940918,-0.293304443
10161.78654,-0.071029663,0.326065063,-0.446426392
10171.44954,0.023178101,0.464782715,-0.66267395
10181.14454,0.101074219,0.6927948,-0.883178711
10190.82254,0.153594971,0.978256226,-0.882797241
10200.47254,0.095672607,1.274276733,-0.884140015
10210.18054,-0.112380981,1.762130737,-1.106231689
10219.85954,-0.322158813,2.417541504,-1.294998169
10229.52454,-0.414810181,2.906097412,-1.067611694
10239.19954,-0.358963013,2.688873291,-0.748779297
10248.89754,-0.169082642,2.055206299,-0.747299194
10258.56854,-0.007339478,1.461761475,-0.74382019
10268.25654,-0.081695557,0.872131348,-0.422790527
10277.93754,-0.242401123,0.257369995,-0.217941284
10287.61854,-0.367767334,0.080764771,-0.116195679
10297.29754,-0.442306519,0.288879395,-0.1615448
10306.94854,-0.520111084,0.531402588,-0.193328857
10316.65554,-0.577423096,0.711090088,-0.185897827
10326.33554,-0.521942139,0.905548096,-0.160369873
10336.00054,-0.320205688,1.166488647,0.002700806
10345.69454,-0.125350952,1.364746094,0.061294556
10355.37354,-0.171432495,1.346450806,0.105056763
10365.05354,-0.385681152,1.115402222,0.040420532
10374.73554,-0.647994995,0.893295288,-0.051696777
10384.41554,-0.836029053,0.835647583,-0.029449463
10394.07554,-0.940048218,0.822921753,0.026000977
10403.77654,-0.856658936,0.768371582,0.139434814
10413.45454,-0.608215332,0.739044189,0.369049072
10423.12954,-0.370986938,0.723907471,0.654907227
10432.81554,-0.230789185,0.703308105,0.746246338
10442.47654,-0.127426147,0.697357178,0.726501465
10452.15054,-0.071594238,0.824432373,0.678909302
10461.82454,-0.089767456,1.010299683,0.604476929
10471.52454,-0.184463501,1.196838379,0.531158447
10481.18854,-0.19128418,1.306045532,0.371948242
10490.88954,-0.165267944,1.468582153,0.047897339
10500.54154,-0.0990448,1.525695801,-0.139511108
10510.23154,-0.06237793,1.36579895,-0.155166626
10519.91154,-0.096984863,1.162445068,-0.254898071
10529.60454,-0.198532104,0.925018311,-0.272201538
10539.27054,-0.265991211,0.782150269,-0.166534424
10548.96554,-0.276687622,0.701156616,-0.12991333
10558.62654,-0.296463013,0.648040771,-0.051361084
10568.31954,-0.224609375,0.718994141,0.119842529
10578.00154,-0.243103027,0.741622925,0.359069824
10587.67454,-0.230575562,0.736282349,0.48626709
10597.36154,-0.201828003,0.774749756,0.36038208
10607.04154,-0.262405396,0.767868042,0.18649292
10616.72354,-0.317520142,0.812606812,0.067489624
10626.40354,-0.420913696,0.871124268,0.018035889
10636.08054,-0.491989136,0.919616699,-0.044815063
10645.75454,-0.520172119,0.944000244,-0.107147217
10655.43954,-0.494430542,0.939971924,-0.117141724
10665.11154,-0.471939087,0.929763794,-0.092651367
10674.79354,-0.432022095,0.936004639,-0.025085449
10684.47154,-0.357223511,0.934448242,0.056106567
10694.12454,-0.275436401,0.959686279,0.044128418
10703.81054,-0.175216675,0.989349365,0.00213623
10713.48454,-0.097946167,1.025085449,0.007843018
10723.16854,-0.038192749,1.075149536,0.005249023
10732.86254,-0.002853394,1.133956909,0.002182007
10742.54354,-0.026245117,1.149795532,0.00402832
10752.22354,-0.082336426,1.159683228,0.017822266
10761.90354,-0.156051636,1.199432373,0.049911499
10771.57854,-0.188842773,1.230545044,0.131637573
10781.26254,-0.157211304,1.220687866,0.253555298
10790.94154,-0.10206604,1.215270996,0.348907471
10800.60054,-0.082077026,1.25100708,0.385757446
10810.29854,-0.080718994,1.248962402,0.3306427
10819.97854,-0.1381073,1.212921143,0.192398071
10829.65554,-0.262054443,1.182159424,0.061431885
10839.33454,-0.376815796,1.224609375,-0.057693481
10848.99854,-0.449478149,1.34538269,-0.103103638
10858.66654,-0.456665039,1.432815552,-0.146713257
10868.34954,-0.343078613,1.401809692,-0.195861816
10878.04954,-0.207443237,1.339889526,-0.273727417
10887.72154,-0.113220215,1.272354126,-0.376037598
10897.40854,-0.059432983,1.198181152,-0.465744019
10907.08854,-0.021713257,1.12689209,-0.510620117
10916.76954,0.002304077,1.086730957,-0.469009399
10926.45054,0.01260376,1.050216675,-0.370101929
10936.13054,0.000747681,0.96862793,-0.185913086
10945.80854,-0.069366455,0.978225708,0.03314209
10955.48154,-0.136703491,1.062850952,0.256271362
10965.15154,-0.276428223,1.174087524,0.387832642
10974.85054,-0.482223511,1.293441772,0.370254517
10984.52354,-0.648345947,1.401885986,0.285675049
10994.20454,-0.78175354,1.526062012,0.280380249
11003.86754,-0.85017395,1.614730835,0.369491577
11013.54754,-0.857589722,1.583404541,0.47819519
11023.22654,-0.773529053,1.427597046,0.457199097
11032.90654,-0.618728638,1.292785645,0.376571655
11042.60254,-0.417694092,1.293716431,0.347625732
11052.25954,-0.345794678,1.324615479,0.105224609
11061.96054,-0.424285889,1.234588623,-0.047637939
11071.63954,-0.497375488,1.119949341,-0.106002808
11081.31854,-0.523864746,1.013595581,-0.078338623
11090.99754,-0.440948486,0.876281738,0.007675171
11100.67654,-0.348052979,0.752792358,0.086975098
11110.35554,-0.236968994,0.684295654,0.111053467
11120.03554,-0.11038208,0.686813354,0.081512451
11129.70254,-0.033508301,0.752029419,0.111175537
11139.39254,0.006225586,0.812255859,0.135345459
11149.07054,0.011550903,0.778442383,0.135498047
11158.72554,-0.085067749,0.756591797,0.182983398
11168.35112,-0.190368652,0.690597534,0.195236206
11178.02512,-0.283462524,0.571746826,0.207885742
11187.70012,-0.364761353,0.426345825,0.253463745
11197.38912,-0.415344238,0.320220947,0.304718018
11207.06713,-0.460540771,0.165130615,0.353988647
11216.74612,-0.479187012,0.04119873,0.326202393
11226.42412,-0.461853027,-0.028518677,0.239700317
11236.10212,-0.418685913,-0.007293701,0.13671875
11245.77912,-0.353103638,0.085968018,-0.001922607
11255.44912,-0.24508667,0.242996216,-0.14755249
11265.13712,-0.158752441,0.399780273,-0.295379639
11274.81612,-0.090240479,0.552368164,-0.551040649
11284.49513,-0.038269043,0.783859253,-0.821716309
11294.15912,-0.049072266,1.07383728,-0.95211792
11303.85612,-0.105987549,1.465637207,-1.12701416
11313.53312,-0.220291138,2.037872314,-1.171279907
11323.18712,-0.367523193,2.609207153,-1.139724731
11332.89212,-0.246459961,2.795669556,-0.900619507
11342.57112,-0.140808105,2.333892822,-0.759857178
11352.24212,-0.065536499,1.721878052,-0.821777344
11361.92912,-0.077819824,1.184936523,-0.59677124
11371.60912,-0.234786987,0.655334473,-0.301803589
11381.28012,-0.39932251,0.284011841,-0.137969971
11390.96613,-0.413970947,0.142379761,-0.04989624
11400.64412,-0.480209351,0.319717407,-0.163116455
11410.32313,-0.484832764,0.598754883,-0.236419678
11420.00212,-0.453491211,0.815704346,-0.163665771
11429.67413,-0.395401001,1.111801147,-0.088989258
11439.36112,-0.319625854,1.4347229,-0.001937866
11449.04113,-0.312057495,1.564743042,0.108444214
11458.69612,-0.385253906,1.421478271,0.10748291
11468.69613,-0.533233643,1.150527954,0.115463257
11478.33513,-0.656906128,0.943756104,0.156982422
11488.01412,-0.722976685,0.764694214,0.188964844
11497.67212,-0.743789673,0.640701294,0.183227539
11507.37512,-0.681182861,0.558120728,0.230682373
11517.05012,-0.510467529,0.48425293,0.423828125
11526.72513,-0.306915283,0.491134644,0.632339478
11536.41112,-0.173080444,0.615951538,0.74055481
11546.09113,-0.110229492,0.758529663,0.753158569
11555.76113,-0.134628296,0.947753906,0.738021851
11565.45112,-0.190673828,1.139419556,0.568939209
11575.13112,-0.206939697,1.250045776,0.340011597
11584.79713,-0.194702148,1.325836182,0.035369873
11594.49013,-0.154327393,1.365478516,-0.180480957
11604.16812,-0.120147705,1.275421143,-0.301055908
11613.84812,-0.10874939,1.105560303,-0.219711304
11623.51812,-0.157928467,0.976837158,-0.116104126
11633.19913,-0.211578369,0.87272644,-0.142486572
11642.87612,-0.146530151,0.806640625,-0.257064819
11652.55113,-0.065826416,0.735595703,-0.241897583
11662.23513,-0.042480469,0.791534424,-0.043273926
11671.91012,-0.093139648,0.96925354,0.357330322
11681.59112,-0.250717163,0.954071045,0.706588745
11691.27512,-0.298431396,0.890884399,0.427154541
11700.96612,-0.339630127,0.833297729,0.215301514
11710.64312,-0.396575928,0.820755005,0.117874146
11720.29912,-0.475631714,0.818283081,0.039978027
11730.00113,-0.541793823,0.847640991,-0.073852539
11739.68113,-0.573547363,0.838592529,-0.19303894
11749.36112,-0.516937256,0.812713623,-0.21131897
11759.03713,-0.485351563,0.817016602,-0.136749268
11768.71612,-0.470092773,0.851074219,0.027236938
11778.39312,-0.412399292,0.939743042,0.172805786
11788.07313,-0.300598145,1.118392944,0.180236816
11797.75112,-0.206558228,1.210128784,0.149230957
11807.43112,-0.176300049,1.146438599,0.064834595
11817.11112,-0.129272461,1.083770752,-0.058456421
11826.77412,-0.098480225,1.062393188,-0.110748291
11836.46812,-0.126602173,1.041305542,-0.090682983
11846.14212,-0.193832397,1.062515259,-0.021789551
11855.80112,-0.265136719,1.156341553,0.081253052
11865.50512,-0.299118042,1.238449097,0.184402466
11875.18512,-0.268310547,1.246032715,0.267913818
11884.85612,-0.200805664,1.230682373,0.363891602
11894.54312,-0.110992432,1.247711182,0.391891479
11904.22012,-0.059173584,1.223358154,0.335189819
11913.90013,-0.052246094,1.211685181,0.207229614
11923.57512,-0.106826782,1.195663452,0.080673218
11933.25712,-0.19744873,1.2315979,0.000305176
11942.93813,-0.283874512,1.351013184,-0.071884155
11952.61713,-0.336608887,1.443222046,-0.126693726
11962.29512,-0.306304932,1.423919678,-0.181350708
11971.97512,-0.225814819,1.32699585,-0.265625
11981.65413,-0.127487183,1.25138855,-0.34437561
11991.32412,-0.056152344,1.16178894,-0.419692993
12001.01312,-0.000656128,1.071716309,-0.48085022
12010.69412,0.016723633,1.01512146,-0.4972229
12020.36812,0.016540527,0.989593506,-0.389099121
12030.05312,-0.017181396,0.950119019,-0.179443359
12039.73312,-0.077850342,0.951904297,0.01651001
12049.40913,-0.122360229,1.013336182,0.16317749
12059.07312,-0.215423584,1.089431763,0.357025146
12068.77212,-0.389984131,1.199859619,0.469543457
12078.45012,-0.546600342,1.371383667,0.437591553
12088.12612,-0.674957275,1.48890686,0.410644531
12097.80013,-0.78414917,1.575775146,0.413375854
12107.47113,-0.870071411,1.631668091,0.438934326
12117.15912,-0.880615234,1.540405273,0.442718506
12126.81613,-0.79675293,1.322052002,0.368133545
12136.50412,-0.713821411,1.204528809,0.289382935
12146.20312,-0.650726318,1.136169434,0.184738159
12155.87512,-0.485076904,1.096557617,-0.048446655
12165.56212,-0.424591064,1.121963501,-0.184448242
12175.23613,-0.489608765,0.937744141,-0.106994629
12184.91212,-0.453613281,0.850387573,0.025344849
12194.60113,-0.337753296,0.811203003,0.079772949
12204.27812,-0.197174072,0.734771729,0.072128296
12213.95713,-0.055557251,0.695037842,0.055038452
12223.63612,0.062088013,0.746322632,0.036483765
12233.31412,0.072006226,0.837646484,0.080383301
12242.99413,0.045318604,0.816009521,0.101379395
12252.67413,-0.03086853,0.780044556,0.131988525
12262.35112,-0.163772583,0.749603271,0.183532715
12272.03112,-0.305755615,0.670471191,0.181533813
12281.71013,-0.410583496,0.551467896,0.20300293
12291.37313,-0.479217529,0.428253174,0.233169556
12301.06012,-0.49887085,0.305786133,0.271911621
12310.74512,-0.457595825,0.177017212,0.264343262
12320.39613,-0.395904541,0.077911377,0.247756958
12330.10213,-0.366012573,0.047424316,0.220291138
12339.78112,-0.327087402,0.059570313,0.10786438
12349.45212,-0.284301758,0.100112915,-0.032318115
12359.13913,-0.225234985,0.182876587,-0.160705566
12368.81712,-0.154647827,0.311935425,-0.303283691
12378.47013,-0.086853027,0.476760864,-0.549453735
12388.10913,-0.05039978,0.729537964,-0.78515625
12397.78712,-0.056289673,1.053894043,-0.86277771
12407.45712,-0.138519287,1.517456055,-1.056930542
12417.14413,-0.328109741,2.18762207,-1.253890991
12426.79413,-0.554275513,2.775665283,-1.232955933
12436.50013,-0.451751709,2.813995361,-0.942001343
12446.17812,-0.203903198,2.271362305,-0.783691406
12455.85712,-0.011108398,1.605422974,-0.729263306
12465.53613,0.038543701,1.073852539,-0.566696167
12475.21412,0.00579834,0.535995483,-0.339736938
12484.88712,-0.073257446,0.144454956,-0.232803345
12494.57113,-0.163787842,0.125457764,-0.151229858
12504.24413,-0.313156128,0.344604492,-0.180831909
12513.92112,-0.412612915,0.542709351,-0.159912109
12523.61212,-0.466079712,0.724746704,-0.060638428
12533.28913,-0.506668091,0.972976685,0.013641357
12542.96213,-0.533920288,1.316497803,-0.029067993
12552.64613,-0.553421021,1.648498535,-0.094543457
12562.32212,-0.642730713,1.803024292,-0.245010376
12571.99913,-0.770507813,1.649581909,-0.341110229
12581.68812,-0.779159546,1.364685059,-0.119232178
12591.34912,-0.655029297,1.024414063,0.289230347
12601.03812,-0.534118652,0.730117798,0.453216553
12610.71512,-0.445175171,0.490997314,0.479385376
12620.38212,-0.309860229,0.302505493,0.579360962
12630.05312,-0.173797607,0.213760376,0.709365845
12639.74512,-0.085769653,0.275680542,0.806243896
12649.42312,-0.047241211,0.502716064,0.831436157
12659.10512,-0.120178223,0.823974609,0.755645752
12668.78412,-0.248306274,1.126190186,0.624221802
12678.47213,-0.331939697,1.30645752,0.309783936
12688.16012,-0.368392944,1.394897461,-0.076049805
12697.84112,-0.295852661,1.35218811,-0.174301147
12707.50512,-0.258392334,1.228973389,-0.079849243
12717.20013,-0.299697876,1.104293823,-0.082824707
12726.88012,-0.366439819,0.970932007,-0.148468018
12736.55912,-0.402557373,0.841583252,-0.124359131
12746.24012,-0.340194702,0.761016846,-0.139709473
12755.91913,-0.300018311,0.698791504,-0.228790283
12765.59812,-0.252532959,0.782409668,-0.090942383
12775.27712,-0.186981201,0.834014893,0.166732788
12784.94912,-0.113265991,0.84324646,0.343063354
12794.63612,-0.109008789,0.867904663,0.343276978
12804.31612,-0.177719116,0.913970947,0.21546936
12813.97013,-0.284515381,0.947052002,0.080169678
12823.67712,-0.438156128,0.911346436,0.059692383
12833.35112,-0.515762329,0.890029907,-0.010253906
12843.01112,-0.541778564,0.866760254,-0.075927734
12852.71712,-0.522766113,0.797149658,-0.077285767
12862.39612,-0.487716675,0.766784668,-0.062728882
12872.06712,-0.458267212,0.745788574,0.017547607
12881.75412,-0.419113159,0.767379761,0.110824585
12891.43312,-0.374099731,0.871536255,0.147186279
12901.11313,-0.33821106,1.053848267,0.124588013
12910.79413,-0.28175354,1.15713501,0.102172852
12920.47412,-0.199676514,1.150802612,0.021209717
12930.15512,-0.126205444,1.094558716,-0.057357788
12939.83512,-0.114425659,1.066329956,-0.084350586
12949.50113,-0.171417236,1.15007019,-0.069320679
12959.19413,-0.222045898,1.263870239,-0.006439209
12968.87412,-0.213653564,1.327819824,0.083587646
12978.55113,-0.133392334,1.338470459,0.163619995
12988.23313,-0.065216064,1.320968628,0.268280029
12997.91212,-0.035293579,1.312805176,0.311828613
13007.59112,-0.039642334,1.298690796,0.246887207
13017.27212,-0.087142944,1.251358032,0.100997925
13026.95013,-0.191101074,1.219345093,-0.029876709
13036.62612,-0.30255127,1.279693604,-0.116088867
13046.30613,-0.347122192,1.386444092,-0.138702393
13055.98312,-0.308166504,1.421142578,-0.11831665
13065.64913,-0.214050293,1.362670898,-0.131454468
13075.34013,-0.121154785,1.291656494,-0.193328857
13085.02012,-0.0597229,1.23664856,-0.280258179
13094.67712,-0.051040649,1.158752441,-0.359710693
13104.36713,-0.038513184,1.0987854,-0.398071289
13114.03312,-0.00592041,1.062713623,-0.299926758
13123.72412,0.005447388,1.015014648,-0.083587646
13133.39712,-0.038253784,0.986831665,0.078918457
13143.06612,-0.128097534,1.002319336,0.106170654
13152.77312,-0.313400269,1.084686279,0.189682007
13162.45113,-0.530990601,1.199432373,0.311233521
13172.11912,-0.705184937,1.310241699,0.372558594
13181.78012,-0.816009521,1.413650513,0.396957397
13191.45313,-0.925857544,1.508544922,0.425033569
13201.16212,-0.997650146,1.565612793,0.422912598
13210.84212,-0.984466553,1.465927124,0.397460938
13220.52012,-0.889465332,1.229095459,0.348007202
13230.19712,-0.783874512,1.02243042,0.27784729
13239.87312,-0.699127197,0.959960938,0.206588745
13249.54813,-0.564163208,1.089385986,0.133331299
13259.23312,-0.49836731,1.105712891,0.092697144
13268.91213,-0.485931396,1.034927368,0.011276245
13278.57012,-0.478057861,0.955688477,0.006622314
13288.27012,-0.416976929,0.868637085,-0.012161255
13297.95112,-0.27381897,0.797042847,0.02281189
13307.60312,-0.133178711,0.760650635,0.066772461
13317.30912,0.010650635,0.764801025,0.063308716
13326.98912,0.08114624,0.829025269,0.047958374
13336.66012,0.073883057,0.787567139,0.099121094
13346.35013,0.011932373,0.687637329,0.11529541
13356.02812,-0.09538269,0.611557007,0.124267578
13365.68313,-0.208908081,0.563369751,0.148345947
13375.38812,-0.29800415,0.453872681,0.193862915
13385.06512,-0.380050659,0.337219238,0.242080688
13394.74312,-0.404373169,0.217666626,0.261032104
13404.42512,-0.400650024,0.149642944,0.309036255
13414.09812,-0.362731934,0.068313599,0.313034058
13423.78212,-0.330062866,0.041061401,0.254455566
13433.46012,-0.314163208,0.070266724,0.142669678
13443.12112,-0.297454834,0.13494873,0.033538818
13452.81812,-0.263885498,0.224121094,-0.091873169
13462.49613,-0.213516235,0.356048584,-0.290481567
13472.17212,-0.182174683,0.548110962,-0.526580811
13481.85312,-0.158660889,0.826171875,-0.773330688
13491.53213,-0.168060303,1.233230591,-0.89515686
13501.20413,-0.260925293,1.766876221,-1.022903442
13510.88912,-0.502944946,2.296951294,-1.202072144
13520.56813,-0.745407104,2.560623169,-1.209899902
13530.24712,-0.608840942,2.347320557,-0.960479736
13539.92213,-0.21875,1.882492065,-0.712020874
13549.59612,0.027511597,1.413360596,-0.524795532
13559.27012,0.008758545,1.097137451,-0.423477173
13568.93613,-0.131668091,0.862045288,-0.334213257
13578.62312,-0.283096313,0.681976318,-0.283966064
13588.29812,-0.400436401,0.626266479,-0.243225098
13597.97712,-0.454040527,0.679382324,-0.257278442
13607.67112,-0.422683716,0.785186768,-0.250396729
13617.33713,-0.43196106,0.926925659,-0.143432617
13627.01612,-0.489105225,1.086273193,-0.001739502
13636.69912,-0.571746826,1.29864502,-0.007263184
13646.36812,-0.627578735,1.475494385,-0.158996582
13656.06513,-0.609909058,1.535522461,-0.27104187
13665.74612,-0.555252075,1.365325928,-0.256591797
13675.42312,-0.501144409,0.962982178,0.006790161
13685.09912,-0.442672729,0.604019165,0.379623413
13694.77612,-0.41053772,0.388778687,0.554275513
13704.45212,-0.355987549,0.208786011,0.611038208
13714.11713,-0.310928345,0.189682007,0.604049683
13723.80512,-0.255233765,0.296661377,0.619613647
13733.48213,-0.146514893,0.422042847,0.684173584
13743.14012,-0.15524292,0.694473267,0.745193481
13752.83613,-0.263183594,1.00541687,0.703323364
13762.51412,-0.374481201,1.227233887,0.577056885
13772.16612,-0.422058105,1.327926636,0.29095459
13781.87012,-0.399475098,1.384674072,-0.030700684
13791.54812,-0.297729492,1.352401733,-0.172912598
13801.21212,-0.233947754,1.264083862,-0.222915649
13810.90412,-0.241149902,1.118759155,-0.252639771
13820.58312,-0.260787964,0.955093384,-0.244232178
13830.26113,-0.326171875,0.839019775,-0.159912109
13839.93812,-0.315292358,0.763824463,-0.094940186
13849.61613,-0.201843262,0.721679688,-0.146713257
13859.29412,-0.23538208,0.798828125,0.022399902
13868.97013,-0.269317627,0.902786255,0.200881958
13878.64512,-0.213363647,0.921875,0.320648193
13888.32712,-0.197067261,0.903396606,0.303985596
13898.00212,-0.219482422,0.914123535,0.170379639
13907.68212,-0.26675415,0.935272217,0.054351807
13917.36213,-0.376022339,0.840621948,0.052200317
13927.04012,-0.434951782,0.768417358,0.045211792
13936.71112,-0.425872803,0.743652344,0.003265381
13946.39513,-0.428405762,0.754302979,-0.03868103
13956.07312,-0.436599731,0.764434814,-0.034515381
13965.74312,-0.428909302,0.789855957,0.020370483
13975.43012,-0.405838013,0.842514038,0.08581543
13985.10912,-0.381317139,0.914382935,0.138305664
13994.78713,-0.3409729,0.997070313,0.137863159
14004.46512,-0.314254761,1.064544678,0.089691162
14014.13512,-0.277511597,1.133636475,-0.034759521
14023.81612,-0.191253662,1.152099609,-0.153060913
14033.50012,-0.102478027,1.116210938,-0.224472046
14043.15812,-0.067977905,1.128509521,-0.202880859
14052.85712,-0.092163086,1.218597412,-0.117935181
14062.51612,-0.100585938,1.283981323,-0.009719849
14072.20012,-0.081787109,1.288803101,0.114730835
14081.88613,-0.065689087,1.289993286,0.221313477
14091.55012,-0.066970825,1.31703186,0.273208618
14101.23212,-0.078094482,1.312698364,0.234283447
14110.90512,-0.124206543,1.243881226,0.120559692
14120.58412,-0.22958374,1.228027344,-0.025054932
14130.26212,-0.352737427,1.314285278,-0.124771118
14139.95713,-0.426589966,1.429580688,-0.175430298
14149.63412,-0.429931641,1.45098877,-0.202346802
14159.31213,-0.372070313,1.35949707,-0.249710083
14168.98912,-0.286468506,1.259353638,-0.316207886
14178.65513,-0.222320557,1.185760498,-0.379470825
14188.34813,-0.167648315,1.138793945,-0.415084839
14198.02512,-0.118652344,1.126846313,-0.355453491
14207.67812,-0.088317871,1.077331543,-0.181625366
14217.38112,-0.095306396,1.061279297,0.010848999
14227.05413,-0.139205933,1.07383728,0.119659424
14236.71112,-0.320877075,1.148025513,0.225769043
14246.41612,-0.545791626,1.243835449,0.361099243
14256.09512,-0.741287231,1.324798584,0.420684814
14265.76513,-0.861587524,1.389801025,0.457077026
14275.45012,-0.968811035,1.480804443,0.466583252
14285.12813,-1.057342529,1.526473999,0.414245605
14294.80412,-1.061401367,1.415252686,0.396652222
14304.47912,-0.936447144,1.192962646,0.410705566
14314.15313,-0.734970093,1.067153931,0.41545105
14323.84112,-0.543289185,1.137237549,0.252304077
14333.51913,-0.379241943,1.125030518,0.040374756
14343.17512,-0.362930298,1.076049805,-0.035919189
14352.87512,-0.349609375,0.968612671,0.048248291
14362.55313,-0.301834106,0.918441772,0.002166748
14372.22813,-0.237823486,0.845474243,-0.003067017
14381.91212,-0.167098999,0.757156372,0.052154541
14391.59013,-0.096389771,0.670791626,0.085876465
14401.25012,-0.038925171,0.677978516,0.138183594
14410.94712,-0.043838501,0.724914551,0.190170288
14420.62512,-0.065338135,0.695602417,0.183609009
14430.29112,-0.112747192,0.634368896,0.1978302
14439.98412,-0.216323853,0.615768433,0.232559204
14449.65512,-0.318756104,0.565414429,0.234008789
14459.34312,-0.386749268,0.427474976,0.225280762
14469.02012,-0.45993042,0.332550049,0.261734009
14478.67412,-0.46434021,0.2056427,0.273284912
14488.34812,-0.416748047,0.08795166,0.263504028
14498.05313,-0.359985352,0.033874512,0.256973267
14507.72613,-0.313858032,0.038848877,0.220352173
14517.39813,-0.287536621,0.074508667,0.137313843
14527.08913,-0.263168335,0.133956909,0.045959473
14536.75912,-0.217193604,0.233459473,-0.068618774
14546.43213,-0.174362183,0.393997192,-0.238067627
14556.13112,-0.127120972,0.598052979,-0.53163147
14565.78412,-0.126937866,0.925689697,-0.894699097
14575.47113,-0.158203125,1.409637451,-1.086090088
14585.16612,-0.231414795,2.05809021,-1.152282715
14594.84212,-0.458999634,2.701919556,-1.429229736
14604.52012,-0.710983276,3.037597656,-1.500823975
14614.19813,-0.650588989,2.723846436,-1.074203491
14623.87812,-0.368743896,2.065979004,-0.773864746
14633.55512,-0.113983154,1.477706909,-0.58392334
14643.22413,0.028808594,0.964477539,-0.391616821
14652.91412,0.107131958,0.380981445,-0.168212891
14662.59212,0.007598877,-0.024581909,-0.214477539
14672.24712,-0.099395752,0.036453247,-0.220184326
14681.94413,-0.205703735,0.246353149,-0.150222778
14691.62713,-0.309356689,0.446609497,-0.092910767
14701.28012,-0.388763428,0.69694519,-0.047164917
14710.98612,-0.401489258,0.999755859,0.000228882
14720.66512,-0.401275635,1.322982788,0.043228149
14730.33812,-0.47996521,1.54524231,-0.092346191
14740.02312,-0.686172485,1.562515259,-0.24331665
14749.70212,-0.921142578,1.455337524,-0.333633423
14759.37412,-0.982971191,1.344726563,-0.200790405
14768.99412,-0.853363037,1.107315063,0.147720337
14778.67113,-0.702346802,0.810317993,0.344848633
14788.33412,-0.586013794,0.614349365,0.390853882
14798.02712,-0.447158813,0.498931885,0.475982666
14807.69613,-0.281173706,0.430709839,0.567352295
14817.37913,-0.145904541,0.445205688,0.620742798
14827.05512,-0.067474365,0.521118164,0.7059021
14836.73013,-0.012283325,0.69934082,0.727111816
14846.40512,-0.017196655,0.937545776,0.682388306
14856.08212,-0.139587402,1.197189331,0.591537476
14865.76112,-0.247131348,1.33807373,0.404098511
14875.43712,-0.292572021,1.374343872,0.110122681
14885.11512,-0.273620605,1.35118103,-0.107894897
14894.76412,-0.280456543,1.250518799,-0.095733643
14904.46613,-0.34262085,1.123764038,-0.075500488
14914.14312,-0.423034668,0.947341919,-0.138717651
14923.80913,-0.47102356,0.77772522,-0.152832031
14933.49812,-0.453536987,0.684020996,-0.112106323
14943.17612,-0.39982605,0.638015747,-0.119918823
14952.84712,-0.34777832,0.687088013,-0.06703186
14962.53212,-0.278823853,0.78717041,0.129974365
14972.20712,-0.183624268,0.868057251,0.299530029
14981.88412,-0.103149414,0.883270264,0.346008301
14991.56213,-0.082382202,0.849227905,0.275360107
15001.23812,-0.161773682,0.891616821,0.141983032
15010.91512,-0.288589478,0.992599487,0.067596436
15020.59112,-0.419647217,0.981750488,0.066223145
15030.26212,-0.449050903,0.941619873,-0.002624512
15039.94413,-0.478942871,0.854644775,-0.077407837
15049.62212,-0.480117798,0.806991577,-0.123001099
15059.28513,-0.480636597,0.79548645,-0.124481201
15068.97712,-0.484054565,0.804855347,-0.062332153
15078.65412,-0.453659058,0.817733765,0.049240112
15088.32313,-0.415054321,0.8802948,0.121124268
15098.00613,-0.363174438,0.965240479,0.119674683
15107.68012,-0.290435791,1.018356323,0.082748413
15117.35412,-0.210571289,1.025390625,0.017272949
15127.03412,-0.154159546,1.056274414,-0.067886353
15136.69912,-0.135681152,1.110900879,-0.107788086
15146.37812,-0.139480591,1.200942993,-0.102172852
15156.05713,-0.14352417,1.331466675,-0.066894531
15165.73112,-0.109725952,1.367355347,0.006210327
15175.43213,-0.072509766,1.338943481,0.099899292
15185.11012,-0.066726685,1.300445557,0.204559326
15194.78313,-0.094268799,1.27961731,0.246658325
15204.46613,-0.141403198,1.249969482,0.201477051
15214.13913,-0.209289551,1.250595093,0.108947754
15223.79612,-0.275283813,1.303710938,0.027206421
15233.50313,-0.307144165,1.358322144,-0.047103882
15243.18212,-0.288497925,1.354492188,-0.114685059
15252.85412,-0.221313477,1.332092285,-0.180633545
15262.53913,-0.153625488,1.325836182,-0.256698608
15272.21512,-0.093597412,1.31149292,-0.309906006
15281.89313,-0.050552368,1.265029907,-0.316680908
15291.57212,-7.63E-05,1.234283447,-0.238861084
15301.24813,0.031585693,1.192443848,-0.09161377
15310.92712,0.006713867,1.165420532,0.047119141
15320.60612,-0.10647583,1.126342773,0.086257935
15330.28212,-0.279052734,1.122573853,0.007278442
15339.96012,-0.501480103,1.145278931,0.053710938
15349.63813,-0.710479736,1.210632324,0.219726563
15359.30412,-0.877838135,1.311294556,0.32951355
15368.99712,-0.983505249,1.389785767,0.350982666
15378.67612,-1.048248291,1.415985107,0.386322021
15388.34413,-1.080627441,1.32975769,0.437240601
15398.03212,-1.020172119,1.131622314,0.434204102
15407.70812,-0.859634399,0.974472046,0.406555176
15417.38113,-0.649139404,0.944519043,0.394699097
15426.99813,-0.535842896,1.032623291,0.333374023
15436.67313,-0.489181519,1.095626831,0.148284912
15446.34012,-0.487289429,1.139602661,-0.050079346
15456.02812,-0.539489746,1.041137695,-0.079040527
15465.69713,-0.540893555,0.957092285,-0.068496704
15475.37412,-0.477523804,0.912261963,-0.071899414
15485.05712,-0.343109131,0.853424072,-0.003601074
15494.73413,-0.186035156,0.752532959,0.084442139
15504.41012,-0.053665161,0.72442627,0.140670776
15514.08713,0.029800415,0.784393311,0.154266357
15523.74612,0.011703491,0.801986694,0.157196045
15533.44113,-0.034576416,0.720947266,0.144592285
15543.11812,-0.100280762,0.631347656,0.149078369
15552.76512,-0.193557739,0.57258606,0.167602539
15562.47112,-0.250854492,0.48210144,0.190979004
15572.14813,-0.276702881,0.361297607,0.204589844
15581.82213,-0.306594849,0.262374878,0.231307983
15591.50313,-0.3152771,0.192886353,0.270401001
15601.18212,-0.317214966,0.105056763,0.28125
15610.83112,-0.323669434,0.072952271,0.264297485
15620.53813,-0.332214355,0.088851929,0.193222046
15630.21812,-0.327880859,0.120666504,0.097869873
15639.89213,-0.295974731,0.171447754,0.009048462
15649.57212,-0.244476318,0.263793945,-0.076904297
15659.22513,-0.148117065,0.419998169,-0.277420044
15668.89912,-0.06022644,0.688720703,-0.568847656
15678.60312,-0.035522461,1.073318481,-0.926177979
15688.26412,-0.12562561,1.674041748,-1.198074341
15697.94812,-0.39805603,2.386428833,-1.361709595
15707.62613,-0.729660034,2.856735229,-1.461669922
15717.31212,-0.839263916,2.701293945,-1.179794312
15726.98213,-0.588287354,2.158889771,-0.852478027
15736.67712,-0.288040161,1.583267212,-0.640899658
15746.35412,-0.116394043,1.141052246,-0.494934082
15756.03412,-0.05696106,0.760421753,-0.299926758
15765.71312,-0.081008911,0.341262817,-0.118591309
15775.37912,-0.238983154,0.07673645,-0.126586914
15785.06912,-0.364852905,0.203796387,-0.210464478
15794.74613,-0.434951782,0.439315796,-0.272140503
15804.42412,-0.472915649,0.647384644,-0.228713989
15814.10212,-0.464584351,0.851959229,-0.127212524
15823.76512,-0.433441162,1.122970581,-0.080123901
15833.45912,-0.371139526,1.448181152,-0.067810059
15843.13613,-0.39781189,1.638259888,-0.039916992
15852.78613,-0.568588257,1.556091309,-0.038818359
15862.49013,-0.754760742,1.354705811,-0.047149658
15872.16512,-0.792098999,1.162063599,0.029891968
15881.83912,-0.717086792,0.959854126,0.264938354
15891.52212,-0.642745972,0.769302368,0.424575806
15901.19813,-0.550857544,0.592330933,0.446868896
15910.86612,-0.404708862,0.48765564,0.503448486
15920.55412,-0.244232178,0.478988647,0.579788208
15930.23112,-0.10017395,0.568496704,0.635879517
15939.90112,-0.038482666,0.692230225,0.667358398
15949.58612,-0.03062439,0.80871582,0.636123657
15959.26312,-0.110748291,0.994491577,0.574798584
15968.94012,-0.19732666,1.12171936,0.47807312
15978.61812,-0.250030518,1.177490234,0.307495117
15988.29613,-0.277908325,1.164138794,0.121612549
15997.96713,-0.344207764,1.107437134,0.042922974
16007.65113,-0.418792725,1.044021606,-0.000198364
16017.32712,-0.484466553,0.979354858,-0.076843262
16027.00612,-0.557678223,0.909957886,-0.124572754
16036.68312,-0.618743896,0.812744141,-0.127120972
16046.33412,-0.626800537,0.752838135,-0.106674194
16056.04113,-0.544296265,0.761886597,-0.097869873
16065.71912,-0.412307739,0.798019409,-0.053863525
16075.37712,-0.323135376,0.817367554,0.059402466
16085.07312,-0.232208252,0.817565918,0.097763062
16094.74813,-0.140960693,0.820968628,0.118759155
16104.42812,-0.082809448,0.839904785,0.125564575
16114.07812,-0.160354614,0.914337158,0.164215088
16123.78313,-0.224182129,0.933395386,0.174743652
16133.46212,-0.285675049,0.884109497,0.182235718
16143.13612,-0.368911743,0.8412323,0.155929565
16152.79512,-0.426620483,0.871673584,0.043685913
16162.47213,-0.45262146,0.927871704,-0.058517456
16172.15413,-0.403244019,1.03465271,-0.127655029
16181.7415,-0.31388855,1.10874939,-0.161071777
16191.4245,-0.206878662,1.122955322,-0.126556396
16201.1075,-0.124847412,1.109924316,-0.055679321
16210.7815,-0.093536377,1.067443848,0.039169312
16220.4745,-0.126022339,1.011581421,0.10319519
16230.1515,-0.200622559,0.99256897,0.093917847
16239.8205,-0.284515381,0.969009399,0.046554565
16249.5045,-0.350509644,0.983703613,0.017654419
16259.1845,-0.397018433,1.052947998,0.031463623
16268.8635,-0.394256592,1.108703613,0.064926147
16278.5435,-0.339126587,1.188262939,0.116973877
16288.2205,-0.268234253,1.30506897,0.177963257
16297.8905,-0.197906494,1.346115112,0.217926025
16307.5765,-0.131118774,1.285385132,0.200531006
16317.2395,-0.116256714,1.188308716,0.128143311
16326.9285,-0.178100586,1.180130005,0.061981201
16336.6105,-0.292388916,1.2631073,0.012481689
16346.2615,-0.372955322,1.356964111,-0.021133423
16355.9675,-0.372268677,1.372924805,-0.071762085
16365.6455,-0.304656982,1.306213379,-0.126144409
16375.3135,-0.243774414,1.270187378,-0.209121704
16385.0025,-0.216171265,1.268859863,-0.31489563
16394.6825,-0.213928223,1.228302002,-0.418899536
16404.3365,-0.196685791,1.184951782,-0.462310791
16414.0375,-0.148422241,1.182189941,-0.428237915
16423.7155,-0.102798462,1.195846558,-0.253845215
16433.3925,-0.08883667,1.17237854,-0.015228271
16443.0705,-0.133789063,1.136062622,0.139007568
16452.7385,-0.209213257,1.148513794,0.172622681
16462.4245,-0.338302612,1.144393921,0.285110474
16472.1015,-0.506896973,1.226287842,0.425384521
16481.7595,-0.659179688,1.343887329,0.524551392
16491.4565,-0.796279907,1.413574219,0.56993103
16501.1335,-0.896438599,1.438171387,0.539276123
16510.7835,-0.906356812,1.371337891,0.442443848
16520.4885,-0.812042236,1.227813721,0.338180542
16530.1605,-0.662246704,1.177993774,0.20513916
16539.8355,-0.508331299,1.12449646,0.152740479
16549.5215,-0.35546875,1.083099365,0.13482666
16559.1995,-0.424911499,1.062667847,0.047470093
16568.8765,-0.542953491,1.003921509,0.026046753
16578.5555,-0.594650269,0.885238647,0.051727295
16588.2165,-0.543502808,0.787033081,0.064422607
16597.9105,-0.419067383,0.705856323,0.099838257
16607.5885,-0.288085938,0.651977539,0.134643555
16617.2525,-0.169647217,0.674636841,0.161834717
16626.9315,-0.03755188,0.780044556,0.172988892
16636.6055,0.03175354,0.847518921,0.138595581
16646.2795,0.001831055,0.835372925,0.114059448
16655.9805,-0.093063354,0.747680664,0.118392944
16665.6425,-0.212905884,0.642150879,0.137985229
16675.3295,-0.311004639,0.53086853,0.168777466
16684.9975,-0.370040894,0.426742554,0.213317871
16694.6775,-0.391220093,0.308181763,0.267303467
16704.3545,-0.382080078,0.192153931,0.274276733
16714.0485,-0.377639771,0.142944336,0.314086914
16723.7275,-0.376724243,0.082122803,0.281570435
16733.4015,-0.373352051,0.085876465,0.208480835
16743.0835,-0.360946655,0.127532959,0.108673096
16752.7615,-0.325180054,0.188735962,-0.017669678
16762.4385,-0.274414063,0.28692627,-0.152801514
16772.1175,-0.2084198,0.427001953,-0.336242676
16781.7785,-0.18850708,0.674743652,-0.698959351
16791.4755,-0.207794189,1.02166748,-1.084411621
16801.1535,-0.227813721,1.50440979,-1.053436279
16810.8305,-0.30355835,2.055709839,-1.022247314
16820.5125,-0.510559082,2.495315552,-1.301055908
16830.1905,-0.62840271,2.556152344,-1.331771851
16839.8525,-0.568450928,2.266357422,-0.953323364
16849.5455,-0.394836426,1.841629028,-0.659210205
16859.2245,-0.163482666,1.349975586,-0.52166748
16868.9025,-0.047653198,0.911865234,-0.41494751
16878.5805,-0.027328491,0.493270874,-0.251754761
16888.2545,-0.118637085,0.072372437,-0.153305054
16897.9355,-0.221099854,0.076660156,-0.242141724
16907.6105,-0.296783447,0.338409424,-0.252197266
16917.2625,-0.326889038,0.529205322,-0.210540771
16926.9675,-0.361099243,0.723480225,-0.135269165
16936.6395,-0.366546631,0.986480713,-0.010360718
16946.2985,-0.341094971,1.253982544,0.11227417
16956.0015,-0.449691772,1.42678833,0.062988281
16965.6805,-0.682617188,1.454681396,0.012756348
16975.3315,-0.982055664,1.398956299,-0.164932251
16985.0355,-1.15032959,1.376907349,-0.191421509
16994.7145,-1.035003662,1.202163696,0.070480347
17004.3865,-0.805648804,0.893875122,0.359542847
17014.0725,-0.611862183,0.658294678,0.496368408
17023.7505,-0.418685913,0.504699707,0.612930298
17033.4285,-0.223464966,0.451385498,0.696792603
17043.1065,-0.088806152,0.550918579,0.695175171
17052.7745,-0.041976929,0.703933716,0.694015503
17062.4625,-0.03086853,0.860610962,0.634002686
17072.1415,-0.045639038,1.026351929,0.539016724
17081.8175,-0.096817017,1.234725952,0.425750732
17091.4705,-0.166091919,1.364242554,0.212158203
17101.1735,-0.207473755,1.348617554,-0.000473022
17110.8485,-0.240905762,1.239944458,-0.0831604
17120.5245,-0.318435669,1.093231201,-0.132415771
17130.2085,-0.41734314,0.982376099,-0.230377197
17139.8625,-0.501144409,0.867279053,-0.212020874
17149.5455,-0.523422241,0.768478394,-0.123855591
17159.2375,-0.489044189,0.742477417,-0.113372803
17168.8935,-0.444122314,0.761184692,-0.069091797
17178.5975,-0.360412598,0.827697754,0.073806763
17188.2755,-0.28868103,0.873382568,0.265899658
17197.9545,-0.218002319,0.878768921,0.359634399
17207.6325,-0.173599243,0.841308594,0.231338501
17217.2945,-0.178634644,0.803512573,0.134887695
17226.9895,-0.244857788,0.805725098,0.102798462
17236.6665,-0.362731934,0.767944336,0.097885132
17246.3175,-0.409194946,0.792358398,0.125152588
17256.0265,-0.354446411,0.81262207,0.105865479
17265.7005,-0.306121826,0.784225464,0.070755005
17275.3695,-0.290496826,0.765960693,0.066421509
17285.0655,-0.287643433,0.763626099,0.074768066
17294.7455,-0.310562134,0.790908813,0.08430481
17304.4155,-0.356887817,0.860626221,0.090332031
17314.1055,-0.388031006,0.955245972,0.064758301
17323.7845,-0.412857056,1.019622803,-0.001998901
17333.4645,-0.393249512,1.09703064,-0.073974609
17343.1185,-0.319549561,1.148803711,-0.129806519
17352.8215,-0.228881836,1.125457764,-0.175125122
17362.5015,-0.165924072,1.144515991,-0.165328979
17372.1805,-0.139266968,1.227432251,-0.094238281
17381.8465,-0.113616943,1.304138184,-0.018630981
17391.5335,-0.087097168,1.348922729,0.09286499
17401.2195,-0.063156128,1.381729126,0.209365845
17410.8975,-0.045593262,1.390167236,0.255935669
17420.5775,-0.046783447,1.311431885,0.205169678
17430.2565,-0.105773926,1.212295532,0.110519409
17439.9085,-0.22026062,1.225646973,-0.013961792
17449.6155,-0.358306885,1.345046997,-0.103286743
17459.2945,-0.456924438,1.460296631,-0.153610229
17468.9615,-0.475418091,1.459991455,-0.211456299
17478.6535,-0.415969849,1.356155396,-0.279541016
17488.3335,-0.329864502,1.300048828,-0.356719971
17498.0115,-0.244720459,1.270858765,-0.435852051
17507.6925,-0.176223755,1.203567505,-0.473617554
17517.3715,-0.11227417,1.153961182,-0.433670044
17527.0515,-0.063323975,1.133499146,-0.272644043
17536.7155,-0.023727417,1.059387207,-0.030166626
17546.3955,-0.01322937,1.033554077,0.1746521
17556.0695,-0.12840271,1.117980957,0.169754028
17565.7725,-0.392272949,1.194458008,0.176681519
17575.4485,-0.627700806,1.268600464,0.292251587
17585.1115,-0.781936646,1.334899902,0.40335083
17594.7925,-0.90713501,1.414047241,0.458404541
17604.4635,-0.977127075,1.434692383,0.471481323
17614.1555,-1.002380371,1.407531738,0.4818573
17623.8345,-0.937774658,1.275634766,0.49559021
17633.5125,-0.782546997,1.122329712,0.427719116
17643.2095,-0.618026733,1.037612915,0.28453064
17652.8895,-0.543380737,1.079833984,0.127593994
17662.5675,-0.451705933,1.103134155,0.022293091
17672.2475,-0.491821289,1.100021362,-0.037506104
17681.9265,-0.554595947,0.993209839,0.042266846
17691.6045,-0.55355835,0.877182007,0.042388916
17701.2825,-0.499603271,0.781661987,0.061889648
17710.9465,-0.334228516,0.715316772,0.096939087
17720.6415,-0.147659302,0.672348022,0.129547119
17730.3205,-0.027694702,0.720443726,0.169342041
17739.9995,0.054397583,0.776611328,0.179656982
17749.6735,0.044265747,0.771057129,0.160949707
17759.3585,-0.022735596,0.719573975,0.145523071
17769.0285,-0.123855591,0.652832031,0.158462524
17778.7175,-0.229660034,0.596099854,0.171859741
17788.3965,-0.291488647,0.496185303,0.185928345
17798.0695,-0.326812744,0.416275024,0.236312866
17807.7545,-0.342422485,0.298782349,0.253738403
17817.4325,-0.339172363,0.20161438,0.266204834
17827.1115,-0.340805054,0.132293701,0.302017212
17836.7915,-0.323318481,0.0703125,0.258865356
17846.4705,-0.315811157,0.070892334,0.163650513
17856.1505,-0.291641235,0.106933594,0.052474976
17865.8325,-0.249145508,0.208343506,-0.062271118
17875.4965,-0.188537598,0.362594604,-0.213897705
17885.1935,-0.114227295,0.555984497,-0.434906006
17894.8725,-0.085998535,0.895721436,-0.814926147
17904.5265,-0.076339722,1.450561523,-1.190536499
17914.2335,-0.152526855,2.107254028,-1.357543945
17923.9115,-0.338363647,2.540252686,-1.328216553
17933.5835,-0.46862793,2.498657227,-1.172103882
17943.2695,-0.476837158,2.130783081,-0.921966553
17952.9205,-0.333099365,1.7081604,-0.701858521
17962.6255,-0.174301147,1.321228027,-0.514648438
17972.3055,-0.127990723,1.017700195,-0.359375
17981.9735,-0.225601196,0.811660767,-0.227584839
17991.6665,-0.418273926,0.690170288,-0.192428589
18001.3215,-0.552780151,0.726242065,-0.202163696
18011.0095,-0.572662354,0.884735107,-0.237426758
18020.7055,-0.530578613,1.021484375,-0.195556641
18030.3855,-0.466583252,1.206863403,-0.091766357
18040.0485,-0.417404175,1.407684326,0.061004639
18049.7455,-0.381118774,1.394393921,0.143508911
18059.4255,-0.410949707,1.18649292,0.094268799
18069.0765,-0.528503418,0.93649292,0.040100098
18078.7745,-0.612319946,0.748901367,-0.026702881
18088.4615,-0.590621948,0.605758667,0.075637817
18098.1255,-0.512878418,0.46685791,0.297103882
18107.8055,-0.437026978,0.363525391,0.53553772
18117.4865,-0.377655029,0.357650757,0.621398926
18127.1725,-0.297271729,0.414047241,0.641921997
18136.8315,-0.265579224,0.588577271,0.633361816
18146.5365,-0.222335815,0.804794312,0.612350464
18156.2195,-0.214569092,1.027893066,0.559158325
18165.8965,-0.25567627,1.212524414,0.494720459
18175.5465,-0.289840698,1.274673462,0.408035278
18185.2575,-0.273468018,1.307144165,0.220809937
18194.9355,-0.205291748,1.338119507,-0.025817871
18204.5995,-0.150680542,1.309249878,-0.163101196
18214.2125,-0.190826416,1.245727539,-0.297454834
18223.8925,-0.290588379,1.115280151,-0.361709595
18233.5655,-0.36378479,0.96182251,-0.215454102
18243.2515,-0.362503052,0.822509766,-0.176177979
18252.9255,-0.323425293,0.758666992,-0.178344727
18262.6285,-0.296875,0.777267456,-0.033981323
18272.3075,-0.273101807,0.794311523,0.22668457
18281.9885,-0.281784058,0.828445435,0.387054443
18291.6505,-0.262268066,0.859375,0.381027222
18301.3485,-0.236541748,0.816696167,0.262405396
18311.0295,-0.253036499,0.758132935,0.158721924
18320.7105,-0.367553711,0.730911255,0.10218811
18330.3905,-0.537826538,0.780960083,0.090820313
18340.0695,-0.565856934,0.812133789,0.009033203
18349.7495,-0.537612915,0.861633301,-0.087692261
18359.4285,-0.46257019,0.873413086,-0.149642944
18369.1025,-0.367706299,0.878768921,-0.171173096
18378.7825,-0.286056519,0.88470459,-0.112548828
18388.4655,-0.243881226,0.899246216,-0.056869507
18398.1255,-0.246368408,0.932876587,0.00718689
18407.8275,-0.270629883,0.97946167,0.066848755
18417.5095,-0.301300049,1.013504028,0.121139526
18427.1625,-0.321716309,1.037887573,0.109680176
18436.8695,-0.314941406,1.040649414,0.019470215
18446.5495,-0.290969849,1.029281616,-0.073455811
18456.2065,-0.260391235,1.020751953,-0.134750366
18466.2065,-0.246429443,1.112350464,-0.115783691
18475.8445,-0.208068848,1.244644165,-0.036941528
18485.5265,-0.144058228,1.341537476,0.062438965
18495.2015,-0.093353271,1.372787476,0.181472778
18504.8855,-0.090682983,1.389068604,0.264785767
18514.5445,-0.123458862,1.361160278,0.254394531
18524.2375,-0.192428589,1.255340576,0.180130005
18533.9255,-0.313552856,1.210266113,0.067123413
18543.6055,-0.415863037,1.271362305,-0.042373657
18553.2855,-0.459152222,1.369674683,-0.090606689
18562.9655,-0.418380737,1.382537842,-0.111679077
18572.6455,-0.325210571,1.318374634,-0.135314941
18582.3265,-0.245071411,1.293075562,-0.198791504
18592.0055,-0.188583374,1.273910522,-0.262741089
18601.6865,-0.157028198,1.225723267,-0.322814941
18611.3665,-0.133605957,1.183410645,-0.372177124
18621.0465,-0.109603882,1.164779663,-0.345626831
18630.7045,-0.089935303,1.114242554,-0.210800171
18640.3945,-0.094680786,1.030059814,-0.041946411
18650.0765,-0.18397522,0.933258057,0.031967163
18659.7435,-0.332641602,0.90145874,0.075958252
18669.4285,-0.547790527,1.011611938,0.168716431
18679.1085,-0.722167969,1.122695923,0.286575317
18688.7795,-0.838119507,1.239974976,0.378219604
18698.4515,-0.918685913,1.333526611,0.406417847
18708.1455,-0.96585083,1.398422241,0.392929077
18717.8025,-0.958389282,1.435256958,0.352798462
18727.4915,-0.871582031,1.354171753,0.357147217
18737.1805,-0.720336914,1.199554443,0.333328247
18746.8615,-0.534133911,1.113143921,0.278610229
18756.5275,-0.382369995,1.197509766,0.181625366
18766.1915,-0.35887146,1.245132446,0.10458374
18775.8995,-0.348266602,1.08833313,0.012741089
18785.5505,-0.333374023,0.977050781,0.010116577
18795.2545,-0.264465332,0.903625488,-0.038375854
18804.9205,-0.174667358,0.812713623,-0.012420654
18814.6025,-0.136077881,0.741363525,0.018173218
18824.2725,-0.14402771,0.722259521,0.078521729
18833.9585,-0.112991333,0.705764771,0.126144409
18843.6385,-0.094619751,0.672683716,0.127807617
18853.3135,-0.095977783,0.617706299,0.097732544
18862.9995,-0.130340576,0.622406006,0.119995117
18872.6775,-0.179077148,0.596984863,0.140151978
18882.3755,-0.256103516,0.544036865,0.159912109
18892.0545,-0.324447632,0.448791504,0.167022705
18901.7345,-0.360656738,0.310150146,0.171905518
18911.4145,-0.387161255,0.262268066,0.207199097
18921.0785,-0.366088867,0.188842773,0.195861816
18930.7465,-0.337768555,0.130172729,0.197952271
18940.4545,-0.32824707,0.121810913,0.166885376
18950.1355,-0.322753906,0.165008545,0.09664917
18959.7905,-0.29284668,0.217758179,-0.009063721
18969.4965,-0.246200562,0.293823242,-0.087921143
18979.1765,-0.196121216,0.404342651,-0.195480347
18988.8485,-0.166213989,0.577026367,-0.40574646
18998.5375,-0.152084351,0.850906372,-0.725234985
19008.2185,-0.169281006,1.288497925,-1.049636841
19017.8975,-0.290725708,1.854537964,-1.234176636
19027.5775,-0.482116699,2.410629272,-1.384475708
19037.2565,-0.579467773,2.638595581,-1.389083862
19046.9265,-0.505096436,2.376296997,-1.044754028
19056.6135,-0.300323486,1.955032349,-0.727371216
19066.2815,-0.078887939,1.511764526,-0.545700073
19075.9695,0.094787598,1.167739868,-0.465179443
19085.6495,0.113937378,0.849899292,-0.455276489
19095.3035,0.04977417,0.523330688,-0.440841675
19105.0105,-0.027145386,0.233108521,-0.306762695
19114.6895,-0.128128052,0.187789917,-0.218444824
19124.3635,-0.264099121,0.372497559,-0.13130188
19134.0465,-0.363754272,0.547988892,0.021972656
19143.7265,-0.411300659,0.689697266,0.172744751
19153.3985,-0.45010376,0.773284912,0.276580811
19163.0855,-0.437149048,0.773468018,0.265533447
19172.7645,-0.464706421,0.85256958,0.121307373
19182.4435,-0.66494751,1.081878662,-0.279449463
19192.1215,-1.065246582,1.368484497,-0.627471924
19201.7795,-1.245742798,1.545761108,-0.43927002
19211.4805,-1.030975342,1.515457153,0.006820679
19221.1595,-0.84034729,1.427658081,0.373016357
19230.8375,-0.72883606,1.220230103,0.52796936
19240.5205,-0.584335327,0.959182739,0.52583313
19250.1935,-0.323791504,0.696884155,0.494674683
19259.8545,-0.115661621,0.607833862,0.541900635
19269.5575,0.014709473,0.593963623,0.610549927
19279.2365,0.085891724,0.614181519,0.656997681
19288.9065,0.027954102,0.787811279,0.583511353
19298.5965,-0.068588257,0.953094482,0.486328125
19308.2745,-0.125106812,1.09375,0.339035034
19317.9295,-0.202346802,1.220932007,0.173812866
19327.6035,-0.292785645,1.192626953,0.052886963
19337.3085,-0.366577148,1.085723877,0.016372681
19346.9655,-0.426101685,0.97857666,-0.043380737
19356.6595,-0.494903564,0.903259277,-0.102981567
19366.3325,-0.559371948,0.836914063,-0.154098511
19376.0235,-0.571380615,0.783081055,-0.116943359
19385.6895,-0.51423645,0.748245239,-0.110366821
19395.3795,-0.431259155,0.781936646,-0.111114502
19405.0495,-0.364044189,0.833511353,-0.01109314
19414.7265,-0.255661011,0.846801758,0.138412476
19424.3945,-0.194351196,0.873718262,0.206619263
19434.1025,-0.16444397,0.899688721,0.153076172
19443.7815,-0.17956543,0.922927856,0.134475708
19453.4505,-0.215164185,0.900375366,0.146072388
19463.1385,-0.20425415,0.899429321,0.18057251
19472.8175,-0.155441284,0.862930298,0.186782837
19482.4965,-0.115829468,0.846206665,0.15385437
19492.1745,-0.115264893,0.856277466,0.104888916
19501.8535,-0.155715942,0.861053467,0.059265137
19511.5325,-0.223266602,0.886474609,0.013549805
19521.2085,-0.312683105,0.94934082,-0.047927856
19530.8815,-0.389144897,1.011779785,-0.084106445
19540.5655,-0.438476563,1.053131104,-0.10647583
19550.2435,-0.481903076,1.090362549,-0.139068604
19559.9165,-0.495620728,1.132217407,-0.153518677
19569.5995,-0.484390259,1.152542114,-0.104202271
19579.2775,-0.411712646,1.158615112,-0.023544312
19588.9455,-0.300491333,1.177612305,0.065628052
19598.6325,-0.175857544,1.210281372,0.167663574
19608.3095,-0.058776855,1.254699707,0.272018433
19617.9805,0.042327881,1.273864746,0.29447937
19627.6645,0.078567505,1.24029541,0.241577148
19637.3265,0.047821045,1.199203491,0.156494141
19647.0235,-0.049301147,1.136947632,0.072402954
19656.7005,-0.208343506,1.073974609,-0.021865845
19666.3795,-0.370849609,1.093780518,-0.159454346
19676.0565,-0.486862183,1.216506958,-0.265350342
19685.7335,-0.521438599,1.360641479,-0.332702637
19695.4015,-0.447677612,1.402389526,-0.365661621
19705.0885,-0.278091431,1.345489502,-0.399368286
19714.7665,-0.106582642,1.297790527,-0.447189331
19724.4235,-0.003723145,1.261108398,-0.464797974
19734.0975,0.022781372,1.19833374,-0.443572998
19743.8015,0.046356201,1.104049683,-0.347320557
19753.4695,0.089324951,1.014968872,-0.175888062
19763.1575,0.108352661,1.019210815,0.007507324
19772.8345,-0.004302979,1.087722778,0.128829956
19782.5025,-0.237594604,1.170211792,0.145248413
19792.1875,-0.504699707,1.338729858,0.119354248
19801.8675,-0.739151001,1.414428711,0.255142212
19811.5455,-0.88609314,1.473678589,0.49961853
19821.1945,-0.931411743,1.490875244,0.655807495
19830.9005,-0.892211914,1.461257935,0.620071411
19840.5795,-0.824249268,1.374145508,0.518005371
19850.2555,-0.738021851,1.201080322,0.431777954
19859.9295,-0.61177063,1.039199829,0.300521851
19869.6045,-0.489349365,1.030502319,0.113861084
19879.2695,-0.407699585,1.142868042,0.041244507
19888.9435,-0.408660889,1.145889282,-0.046005249
19898.6295,-0.502075195,1.065460205,-0.108474731
19908.3075,-0.539581299,0.963394165,-0.046554565
19917.9795,-0.553833008,0.839187622,-0.018264771
19927.6645,-0.444885254,0.775695801,0.034408569
19937.3445,-0.296279907,0.726882935,0.061355591
19947.0385,-0.152389526,0.674957275,0.100646973
19956.7165,-0.103683472,0.696044922,0.145584106
19966.3945,-0.1353302,0.722427368,0.185073853
19976.0735,-0.117752075,0.678619385,0.185424805
19985.7525,-0.144470215,0.660522461,0.17539978
19995.4305,-0.157226563,0.630523682,0.146469116
20005.1075,-0.214172363,0.587631226,0.186553955
20014.7865,-0.272872925,0.485809326,0.185913086
20024.4415,-0.329147339,0.397918701,0.219741821
20034.1455,-0.359436035,0.278411865,0.243942261
20043.8215,-0.379318237,0.20173645,0.28237915
20053.4915,-0.376907349,0.126785278,0.272109985
20063.1785,-0.359985352,0.121734619,0.215164185
20072.8565,-0.364181519,0.180145264,0.108200073
20082.5285,-0.343093872,0.246459961,-0.001174927
20092.2125,-0.30418396,0.327346802,-0.082473755
20101.8905,-0.267379761,0.454833984,-0.213577271
20111.5675,-0.20652771,0.612045288,-0.469421387
20121.2465,-0.155776978,0.863891602,-0.801971436
20130.9255,-0.142349243,1.250961304,-1.039993286
20140.5915,-0.218933105,1.763626099,-1.087142944
20150.2855,-0.36416626,2.307449341,-1.251159668
20159.9635,-0.511398315,2.616119385,-1.296936035
20169.6415,-0.531829834,2.414642334,-1.045028687
20179.3215,-0.434417725,2.013809204,-0.823944092
20188.9925,-0.248138428,1.521011353,-0.671051025
20198.6785,-0.097732544,1.057601929,-0.410339355
20208.3575,-0.097000122,0.659332275,-0.20211792
20218.0215,-0.259384155,0.429794312,-0.253219604
20227.7165,-0.420211792,0.380584717,-0.226318359
20237.3955,-0.447525024,0.476516724,-0.216400146
20247.0725,-0.429763794,0.641937256,-0.131027222
20256.7515,-0.407272339,0.876998901,-0.031768799
20266.4155,-0.366455078,1.193161011,0.02986145
20276.1085,-0.389724731,1.482772827,0.088134766
20285.7845,-0.516296387,1.568405151,0.022109985
20295.4375,-0.725357056,1.458572388,-0.081680298
20305.1395,-0.870819092,1.275421143,-0.108673096
20314.8185,-0.794784546,1.026611328,0.10194397
20324.4915,-0.650665283,0.726913452,0.333862305
20334.1755,-0.551437378,0.482437134,0.480255127
20343.8385,-0.477233887,0.36366272,0.561157227
20353.5125,-0.357727051,0.310699463,0.633346558
20363.2115,-0.248718262,0.373077393,0.643417358
20372.8905,-0.182861328,0.535079956,0.622665405
20382.5595,-0.15032959,0.73815918,0.606521606
20392.2495,-0.22946167,0.990036011,0.556671143
20401.9135,-0.300811768,1.165740967,0.452697754
20411.6005,-0.325485229,1.257629395,0.291870117
20421.2735,-0.303405762,1.315994263,0.073471069
20430.9355,-0.241699219,1.34815979,-0.076187134
20440.6205,-0.200698853,1.392715454,-0.136077881
20450.3005,-0.248184204,1.311447144,-0.234283447
20459.9815,-0.315994263,1.095947266,-0.195983887
20469.6695,-0.369140625,0.879562378,-0.094421387
20479.3365,-0.358856201,0.783782959,-0.125198364
20489.0115,-0.263717651,0.735168457,-0.176116943
20498.7105,-0.255004883,0.725967407,-0.034896851
20508.3895,-0.25177002,0.721420288,0.138168335
20518.0625,-0.288879395,0.765640259,0.249389648
20527.7465,-0.280853271,0.80821228,0.237411499
20537.4255,-0.254257202,0.815704346,0.226593018
20547.0975,-0.250427246,0.83694458,0.22668457
20556.7835,-0.277267456,0.875518799,0.200775146
20566.4615,-0.349746704,0.914932251,0.173400879
20576.1395,-0.377716064,0.896469116,0.122253418
20585.8185,-0.416656494,0.874984741,0.046508789
20595.4865,-0.419235229,0.834655762,-0.037017822
20605.1755,-0.403610229,0.793518066,-0.076644897
20614.8465,-0.40335083,0.786102295,-0.075378418
20624.5205,-0.409835815,0.819869995,-0.00994873
20634.2095,-0.412414551,0.869384766,0.063720703
20643.8905,-0.383453369,0.952362061,0.075195313
20653.5625,-0.330245972,1.039306641,0.054077148
20663.2495,-0.258239746,1.078430176,0.000656128
20672.9285,-0.181365967,1.065139771,-0.067306519
20682.5975,-0.124206543,1.043914795,-0.110122681
20692.2845,-0.10093689,1.081680298,-0.123291016
20701.9625,-0.119949341,1.164489746,-0.062103271
20711.6425,-0.113342285,1.263336182,0.008972168
20721.3195,-0.092498779,1.306762695,0.111053467
20730.9995,-0.095275879,1.334350586,0.226089478
20740.6765,-0.112243652,1.358444214,0.261566162
20750.3325,-0.134597778,1.27784729,0.23866272
20760.0065,-0.193893433,1.182846069,0.19291687
20769.7125,-0.294403076,1.174728394,0.118667603
20779.3905,-0.376022339,1.222000122,0.020782471
20789.0545,-0.414764404,1.241088867,-0.063400269
20798.7465,-0.390930176,1.230758667,-0.122497559
20808.4245,-0.327331543,1.237792969,-0.176025391
20818.0755,-0.256713867,1.271057129,-0.220748901
20827.7805,-0.202529907,1.304397583,-0.240463257
20837.4585,-0.165710449,1.29776001,-0.251617432
20847.1295,-0.126907349,1.266082764,-0.257736206
20856.8085,-0.100402832,1.264602661,-0.214691162
20866.4965,-0.084213257,1.239959717,-0.12461853
20876.1675,-0.123138428,1.143203735,-0.038146973
20885.8305,-0.210067749,1.014221191,-0.018692017
20895.5065,-0.364532471,1.010650635,-0.024169922
20905.2155,-0.551971436,1.063034058,0.060501099
20914.8935,-0.749816895,1.136276245,0.169494629
20924.5575,-0.89881897,1.182113647,0.258590698
20934.2425,-0.972091675,1.242431641,0.30758667
20943.9275,-0.983001709,1.328094482,0.343811035
20953.6105,-0.944198608,1.321640015,0.374938965
20963.2245,-0.80632019,1.19329834,0.413085938
20972.8815,-0.629714966,1.084365845,0.460739136
20982.5555,-0.507949829,1.063995361,0.473373413
20992.2575,-0.436676025,1.089752197,0.383666992
21001.9255,-0.437347412,1.122695923,0.224761963
21011.6095,-0.495849609,1.076187134,0.019561768
21021.2725,-0.575485229,1.00340271,-0.040130615
21030.9585,-0.558105469,0.975296021,-0.081085205
21040.6305,-0.413787842,0.935150146,-0.088378906
21050.3075,-0.300201416,0.858551025,-0.048828125
21059.9875,-0.215835571,0.807662964,0.034347534
21069.6665,-0.125457764,0.829376221,0.118484497
21079.3455,-0.081497192,0.812225342,0.149276733
21089.0245,-0.065597534,0.742660522,0.103713989
21098.7215,-0.086166382,0.671203613,0.109664917
21108.3995,-0.120498657,0.605438232,0.137496948
21118.0775,-0.170959473,0.531066895,0.164733887
21127.7575,-0.23526001,0.420700073,0.169128418
21137.4375,-0.30909729,0.312652588,0.23500061
21147.0995,-0.336837769,0.190322876,0.255615234
21156.7975,-0.344207764,0.119827271,0.276931763
21166.4775,-0.34513855,0.077835083,0.271530151
21176.1295,-0.331954956,0.077423096,0.204177856
21185.76275,-0.319290161,0.123062134,0.143859863
21195.44175,-0.291091919,0.158508301,0.060150146
21205.11275,-0.239379883,0.215805054,-0.026794434
21214.80275,-0.171478271,0.341598511,-0.159378052
21224.48175,-0.091400146,0.513259888,-0.380340576
21234.16275,-0.063156128,0.801986694,-0.849685669
21243.84275,-0.093917847,1.224121094,-1.194976807
21253.52475,-0.239929199,1.771224976,-1.359512329
21263.20375,-0.493652344,2.282455444,-1.369781494
21272.88375,-0.710952759,2.534469604,-1.202651978
21282.53575,-0.662063599,2.38458252,-1.032043457
21292.23375,-0.449081421,1.934402466,-0.895095825
21301.92575,-0.257873535,1.404205322,-0.763290405
21311.58175,-0.173095703,0.968338013,-0.51171875
21321.28275,-0.23236084,0.575759888,-0.208557129
21330.96275,-0.386383057,0.36126709,-0.139434814
21340.61775,-0.588882446,0.358154297,-0.111679077
21350.32375,-0.638168335,0.534713745,-0.123214722
21360.00375,-0.553833008,0.71321106,-0.105606079
21369.67575,-0.460830688,0.870361328,-0.07901001
21379.36475,-0.380172729,1.088378906,-0.121368408
21389.04375,-0.352676392,1.396469116,-0.22946167
21398.72275,-0.414474487,1.632202148,-0.202377319
21408.38475,-0.544845581,1.632507324,-0.137191772
21418.08075,-0.680114746,1.432876587,-0.072875977
21427.75975,-0.71043396,1.196578979,0.051956177
21437.44075,-0.607437134,0.946807861,0.253601074
21447.12075,-0.484832764,0.680603027,0.401504517
21456.80075,-0.398696899,0.494125366,0.46836853
21466.47975,-0.340179443,0.382110596,0.483856201
21476.13275,-0.274475098,0.365509033,0.499313354
21485.83775,-0.172424316,0.436813354,0.56968689
21495.51475,-0.097442627,0.619445801,0.61831665
21505.16875,-0.050827026,0.827255249,0.587081909
21514.87575,-0.112533569,1.066619873,0.548400879
21524.55375,-0.218566895,1.169799805,0.460525513
21534.22275,-0.28956604,1.163452148,0.327789307
21543.89375,-0.327789307,1.152114868,0.168197632
21553.59475,-0.343521118,1.125198364,0.043289185
21563.26175,-0.388748169,1.072525024,-0.064193726
21572.93475,-0.435134888,1.029159546,-0.169692993
21582.60975,-0.500244141,0.985717773,-0.232208252
21592.30875,-0.532714844,0.909393311,-0.229446411
21601.98375,-0.536712646,0.82951355,-0.184432983
21611.66975,-0.442657471,0.781036377,-0.112701416
21621.32875,-0.359634399,0.795333862,-0.035217285
21631.00875,-0.326721191,0.814834595,0.006973267
21640.68375,-0.352722168,0.858352661,0.015533447
21650.36975,-0.290924072,0.912765503,0.02911377
21660.04975,-0.223648071,0.938552856,0.053482056
21669.72975,-0.170532227,0.913589478,0.112854004
21679.42575,-0.134643555,0.894958496,0.125595093
21689.10475,-0.177932739,0.939834595,0.119491577
21698.77675,-0.198501587,0.955154419,0.116592407
21708.46275,-0.22492981,0.907775879,0.116119385
21718.14075,-0.240219116,0.89541626,0.080078125
21727.81975,-0.253555298,0.876861572,0.035476685
21737.48575,-0.263671875,0.846038818,0.015884399
21747.15975,-0.270477295,0.829177856,0.020858765
21756.85375,-0.299240112,0.815841675,0.022613525
21766.53175,-0.344589233,0.815719604,0.027984619
21776.18175,-0.378845215,0.818710327,0.015228271
21785.88975,-0.385101318,0.853149414,0.011123657
21795.56875,-0.389572144,0.918869019,0.009353638
21805.22075,-0.384063721,0.979492188,-0.01940918
21814.90875,-0.364379883,1.028305054,-0.08203125
21824.60575,-0.330673218,1.081237793,-0.153213501
21834.27675,-0.282363892,1.165084839,-0.189025879
21843.96675,-0.219818115,1.254516602,-0.146133423
21853.64675,-0.157775879,1.345977783,-0.054901123
21863.32675,-0.112884521,1.42666626,0.062820435
21873.00675,-0.064102173,1.435287476,0.162353516
21882.68575,-0.023284912,1.33215332,0.203979492
21892.36575,-0.048675537,1.205963135,0.195663452
21902.04475,-0.172088623,1.173522949,0.142181396
21911.71075,-0.360961914,1.215087891,0.080459595
21921.40175,-0.494415283,1.287780762,0.007064819
21931.07975,-0.487091064,1.31350708,-0.08052063
21940.73275,-0.382354736,1.276580811,-0.149658203
21950.44075,-0.287597656,1.249359131,-0.214202881
21960.12075,-0.235748291,1.220596313,-0.29737854
21969.78675,-0.21105957,1.180038452,-0.39654541
21979.48175,-0.166030884,1.201828003,-0.447113037
21989.16075,-0.116333008,1.251785278,-0.339050293
21998.83375,-0.061569214,1.218658447,-0.107406616
22008.52175,-0.048126221,1.145828247,0.103912354
22018.18575,-0.089248657,1.116836548,0.169891357
22027.88175,-0.268203735,1.151229858,0.202468872
22037.56075,-0.491470337,1.198730469,0.328765869
22047.23875,-0.662963867,1.290710449,0.479278564
22056.91875,-0.79864502,1.359451294,0.544265747
22066.58675,-0.893127441,1.373703003,0.44380188
22076.25875,-0.926925659,1.337722778,0.352874756
22085.95975,-0.863311768,1.241134644,0.34753418
22095.60875,-0.732589722,1.112503052,0.345687866
22105.31375,-0.628189087,1.053085327,0.319503784
22114.99775,-0.546112061,1.111709595,0.275100708
22124.67575,-0.449630737,1.11126709,0.235046387
22134.34075,-0.409515381,1.116455078,0.115692139
22144.02375,-0.498748779,1.140838623,0.028244019
22153.70375,-0.580795288,1.087890625,-0.048614502
22163.38275,-0.529953003,0.971206665,-0.073104858
22173.06275,-0.431533813,0.86076355,-0.005432129
22182.76075,-0.342025757,0.707519531,0.071487427
22192.44175,-0.187042236,0.587524414,0.122268677
22202.12075,-0.03868103,0.58140564,0.155670166
22211.80175,0.076141357,0.672729492,0.166030884
22221.48375,0.102828979,0.704299927,0.155273438
22231.16475,0.027648926,0.705154419,0.132629395
22240.84275,-0.057388306,0.651199341,0.128189087
22250.52375,-0.187103271,0.613220215,0.149795532
22260.20375,-0.3203125,0.542419434,0.203033447
22269.86675,-0.398971558,0.408584595,0.238555908
22279.56575,-0.465866089,0.301712036,0.303024292
22289.24675,-0.483520508,0.200317383,0.335830688
22298.92175,-0.455780029,0.10333252,0.32333374
22308.60675,-0.414581299,0.089324951,0.255340576
22318.28675,-0.383300781,0.135299683,0.152786255
22327.96575,-0.34375,0.20350647,0.029403687
22337.64375,-0.293518066,0.290313721,-0.087020874
22347.32175,-0.220001221,0.401382446,-0.19984436
22357.00275,-0.143325806,0.575149536,-0.349182129
22366.68275,-0.11567688,0.846664429,-0.626968384
22376.35575,-0.143707275,1.214233398,-1.031356812
22386.04375,-0.225448608,1.65953064,-1.167861938
22395.71875,-0.3618927,2.097076416,-1.069747925
22405.39275,-0.48727417,2.405090332,-1.158493042
22415.08675,-0.502410889,2.330535889,-1.121994019
22424.74175,-0.399520874,2.101730347,-0.886962891
22434.43875,-0.240646362,1.756896973,-0.695571899
22444.12675,-0.068649292,1.365615845,-0.528182983
22453.80775,0.116912842,0.956604004,-0.413284302
22463.47975,0.170059204,0.508377075,-0.194747925
22473.16775,0.041763306,0.207382202,-0.205108643
22482.84775,-0.179199219,0.276733398,-0.230041504
22492.53075,-0.317367554,0.488967896,-0.182693481
22502.21175,-0.39453125,0.619659424,-0.08807373
22511.86975,-0.449584961,0.776672363,-0.011734009
22521.56875,-0.484283447,1.017929077,-0.052902222
22531.25575,-0.543258667,1.339416504,-0.137374878
22540.92175,-0.678482056,1.695541382,-0.209793091
22550.61775,-0.906005859,1.892471313,-0.279800415
22560.29775,-1.078338623,1.835189819,-0.238311768
22569.97475,-1.003967285,1.522598267,-0.007598877
22579.65875,-0.740005493,1.073013306,0.300460815
22589.33975,-0.523223877,0.655075073,0.478103638
22599.01275,-0.431121826,0.395935059,0.529663086
22608.70175,-0.35710144,0.261245728,0.547698975
22618.38175,-0.240020752,0.18699646,0.594238281
22628.05275,-0.15663147,0.277542114,0.650695801
22637.73075,-0.051757813,0.461410522,0.712677002
22647.42775,-0.020446777,0.709121704,0.664962769
22657.09675,-0.132171631,1.036712646,0.583755493
22666.77775,-0.268127441,1.223312378,0.457366943
22676.45175,-0.345108032,1.288208008,0.24395752
22686.15875,-0.378097534,1.30682373,0.061248779
22695.83975,-0.382797241,1.311187744,-0.004989624
22705.50275,-0.375335693,1.286437988,-0.031570435
22715.19975,-0.370285034,1.202087402,-0.131607056
22724.87975,-0.386489868,1.062850952,-0.237335205
22734.53175,-0.414291382,0.948165894,-0.261291504
22744.23975,-0.41885376,0.855697632,-0.249801636
22753.92075,-0.3934021,0.796569824,-0.179367065
22763.59275,-0.340148926,0.766067505,-0.116775513
22773.28275,-0.308334351,0.796432495,-0.007095337
22782.93775,-0.276870728,0.871047974,0.098617554
22792.64675,-0.249343872,0.90007019,0.173309326
22802.32775,-0.222442627,0.874313354,0.232910156
22812.00775,-0.220275879,0.852310181,0.226135254
22821.69075,-0.252883911,0.85256958,0.17918396
22831.37175,-0.344894409,0.899154663,0.1328125
22841.05175,-0.437301636,0.87272644,0.116439819
22850.73375,-0.43862915,0.86100769,0.09312439
22860.41475,-0.391235352,0.809310913,0.05708313
22870.08275,-0.335418701,0.765319824,0.035964966
22879.77475,-0.302734375,0.75163269,0.027374268
22889.45575,-0.300308228,0.757034302,0.037567139
22899.11075,-0.298934937,0.755355835,0.049301147
22908.81675,-0.276351929,0.756820679,0.039611816
22918.49675,-0.250183105,0.782791138,0.026168823
22928.15075,-0.226303101,0.847000122,0.020095825
22937.79375,-0.194030762,0.94493103,0.006149292
22947.47375,-0.173217773,1.003845215,-0.031173706
22957.15175,-0.188018799,1.055633545,-0.074676514
22966.83275,-0.230224609,1.144546509,-0.085617065
22976.50875,-0.267059326,1.252304077,-0.057388306
22986.18575,-0.249816895,1.33972168,0.01612854
22995.87375,-0.20211792,1.418395996,0.114730835
23005.55275,-0.154846191,1.433517456,0.200057983
23015.23375,-0.108474731,1.341567993,0.212249756
23024.91475,-0.109542847,1.197479248,0.173858643
23034.59475,-0.16192627,1.106689453,0.095733643
23044.27575,-0.259033203,1.107757568,0.021697998
23053.95575,-0.344818115,1.200088501,-0.066543579
23063.61175,-0.394851685,1.320129395,-0.135269165
23073.31875,-0.391204834,1.355941772,-0.208389282
23082.99775,-0.354675293,1.330627441,-0.289474487
23092.67475,-0.330871582,1.306732178,-0.388122559
23102.34975,-0.298706055,1.254730225,-0.4659729
23112.04075,-0.231430054,1.172927856,-0.46055603
23121.71775,-0.144546509,1.129302979,-0.349258423
23131.38975,-0.0884552,1.092208862,-0.14831543
23141.07975,-0.055725098,1.012908936,0.065628052
23150.75175,-0.114135742,1.036682129,0.196182251
23160.43975,-0.225357056,1.094543457,0.209457397
23170.11875,-0.432434082,1.213699341,0.221359253
23179.79075,-0.661117554,1.284637451,0.282485962
23189.46375,-0.804138184,1.34928894,0.392532349
23199.13875,-0.905700684,1.419921875,0.476791382
23208.81375,-0.933242798,1.42791748,0.506317139
23218.50175,-0.885620117,1.364425659,0.484146118
23228.17575,-0.783432007,1.222839355,0.433395386
23237.86475,-0.63130188,1.055862427,0.365631104
23247.54575,-0.487609863,1.015548706,0.285018921
23257.21375,-0.379852295,1.062164307,0.180221558
23266.92575,-0.333648682,1.088729858,0.086929321
23276.60575,-0.375335693,1.05921936,0.002548218
23286.27075,-0.443023682,0.970947266,-0.021057129
23295.96775,-0.476882935,0.888015747,-0.031402588
23305.64375,-0.3644104,0.859375,-0.043960571
23315.30475,-0.254943848,0.820281982,0.022003174
23325.00775,-0.181518555,0.783721924,0.090545654
23334.66775,-0.123626709,0.791091919,0.140136719
23344.36675,-0.090148926,0.795120239,0.15461731
23354.04575,-0.072372437,0.755325317,0.160232544
23363.72075,-0.07824707,0.722885132,0.170639038
23373.40575,-0.147476196,0.683242798,0.186660767
23383.06975,-0.246688843,0.613754272,0.201156616
23392.74275,-0.337677002,0.507034302,0.188964844
23402.44575,-0.404418945,0.44367981,0.207351685
23412.12575,-0.43963623,0.343658447,0.232162476
23421.77875,-0.448028564,0.28364563,0.243881226
23431.48575,-0.41545105,0.234909058,0.236053467
23441.16675,-0.377380371,0.225830078,0.195983887
23450.83875,-0.352722168,0.251937866,0.128463745
23460.52575,-0.33921814,0.292114258,0.042633057
23470.20375,-0.321655273,0.320159912,-0.016479492
23479.88175,-0.299285889,0.362258911,-0.092147827
23489.56175,-0.273666382,0.432647705,-0.195083618
23499.23975,-0.262466431,0.554641724,-0.35887146
23508.89375,-0.23387146,0.70803833,-0.57182312
23518.59775,-0.222869873,1.026000977,-0.83795166
23528.27575,-0.221725464,1.521209717,-0.888015747
23537.95375,-0.201385498,2.079223633,-0.977355957
23547.63175,-0.281387329,2.531997681,-1.195877075
23557.29375,-0.342651367,2.599807739,-1.264984131
23566.98875,-0.352127075,2.316268921,-0.965362549
23576.66675,-0.321289063,1.883728027,-0.707351685
23586.34575,-0.174575806,1.418502808,-0.56477356
23596.02575,0.012008667,0.916412354,-0.365112305
23605.70475,0.047912598,0.436080933,-0.210540771
23615.37575,-0.034408569,0.107315063,-0.231872559
23625.06075,-0.163833618,0.152374268,-0.274154663
23634.73875,-0.280487061,0.388092041,-0.31628418
23644.41775,-0.343261719,0.624984741,-0.25378418
23654.09575,-0.348983765,0.871902466,-0.194534302
23663.74575,-0.352844238,1.278182983,-0.110671997
23673.45475,-0.420074463,1.719055176,-0.011123657
23683.13475,-0.635070801,1.94972229,-0.067108154
23692.79575,-0.876617432,1.868118286,-0.17880249
23702.48875,-1.020294189,1.634872437,-0.146514893
23712.17475,-0.955810547,1.268005371,0.056945801
23721.83175,-0.767379761,0.796615601,0.249969482
23731.51375,-0.615478516,0.409881592,0.375061035
23741.19375,-0.490158081,0.197143555,0.501647949
23750.86875,-0.36100769,0.087661743,0.653121948
23760.54975,-0.223678589,0.093276978,0.681732178
23770.22975,-0.112854004,0.220733643,0.751296997
23779.92575,-0.042434692,0.502410889,0.741668701
23789.59275,-0.046279907,0.818161011,0.685256958
23799.28175,-0.139984131,1.154754639,0.551071167
23808.96175,-0.245635986,1.354431152,0.408050537
23818.63975,-0.299438477,1.396560669,0.271621704
23828.29075,-0.293151855,1.410385132,0.099777222
23837.99875,-0.23576355,1.406295776,-0.020019531
23847.67775,-0.187042236,1.40763855,-0.066314697
23857.33675,-0.215408325,1.285491943,-0.170455933
23867.03475,-0.310287476,1.097579956,-0.277648926
23876.71275,-0.409591675,0.91973877,-0.291397095
23886.36475,-0.440658569,0.80090332,-0.292816162
