time(ms),accelerometerAccelerationX,accelerometerAccelerationY,accelerometerAccelerationZ
0,0.410171509,0.348007202,-0.875213623
9.7,0.398681641,0.353134155,-0.886901855
19.38,0.387985229,0.364425659,-0.885131836
29.058,0.365737915,0.385406494,-0.87147522
38.75,0.347167969,0.415542603,-0.856262207
48.424,0.329727173,0.43069458,-0.858978271
58.108,0.321060181,0.423187256,-0.846496582
67.795,0.303100586,0.419647217,-0.840011597
77.475,0.302352905,0.417053223,-0.829223633
87.156,0.305236816,0.415893555,-0.811325073
96.838,0.303207397,0.405181885,-0.80569458
106.507,0.298233032,0.396621704,-0.79850769
116.2,0.29800415,0.404678345,-0.799087524
125.879,0.294815063,0.408065796,-0.803863525
135.559,0.272674561,0.413543701,-0.810165405
145.245,0.262405396,0.42137146,-0.813827515
154.927,0.254241943,0.429901123,-0.8253479
164.582,0.261260986,0.43977356,-0.846801758
174.286,0.283462524,0.437713623,-0.865463257
183.976,0.301773071,0.419754028,-0.84727478
193.653,0.313140869,0.407409668,-0.82484436
203.335,0.316665649,0.398834229,-0.815994263
213.023,0.324157715,0.389984131,-0.801773071
222.682,0.332992554,0.381118774,-0.814697266
232.682,0.330108643,0.375549316,-0.832901001
242.331,0.3228302,0.374160767,-0.831298828
252.017,0.319702148,0.384719849,-0.839736938
261.69,0.330062866,0.402740479,-0.865386963
271.367,0.341659546,0.40713501,-0.884277344
281.061,0.349243164,0.406005859,-0.876663208
290.744,0.358413696,0.410705566,-0.85736084
300.422,0.349502563,0.40083313,-0.849212646
310.094,0.341751099,0.398254395,-0.839996338
319.798,0.351959229,0.411514282,-0.822723389
329.487,0.349075317,0.411697388,-0.831634521
339.167,0.341751099,0.412750244,-0.836883545
348.836,0.34463501,0.417892456,-0.826568604
358.519,0.343002319,0.417648315,-0.812515259
368.199,0.341567993,0.411865234,-0.793945313
377.887,0.334014893,0.405960083,-0.775360107
387.57,0.327056885,0.411895752,-0.773300171
397.252,0.326797485,0.406860352,-0.768707275
406.953,0.336761475,0.406219482,-0.760528564
416.626,0.362045288,0.410919189,-0.753952026
426.312,0.359802246,0.423065186,-0.736206055
435.985,0.325302124,0.42980957,-0.712203979
445.69,0.289855957,0.432525635,-0.690872192
455.374,0.245895386,0.528793335,-0.696899414
465.057,0.274902344,0.566421509,-0.691268921
474.74,0.321380615,0.561569214,-0.656707764
484.419,0.307937622,0.551742554,-0.634338379
494.108,0.259368896,0.551040649,-0.632049561
503.789,0.274749756,0.555801392,-0.638916016
513.476,0.322402954,0.553848267,-0.638717651
523.16,0.383529663,0.527038574,-0.66633606
532.841,0.43661499,0.500656128,-0.695648193
542.528,0.473007202,0.502182007,-0.752868652
552.213,0.485656738,0.536804199,-0.749191284
561.881,0.459564209,0.533874512,-0.75239563
571.583,0.447494507,0.504943848,-0.778961182
581.268,0.444747925,0.497711182,-0.81262207
590.938,0.481384277,0.489089966,-0.796783447
600.636,0.524871826,0.473068237,-0.760101318
610.32,0.535797119,0.493560791,-0.757400513
620.003,0.509963989,0.524719238,-0.733428955
629.686,0.475875854,0.480575562,-0.701675415
639.367,0.437942505,0.510101318,-0.687530518
649.052,0.499313354,0.615890503,-0.716064453
658.735,0.586242676,0.669036865,-0.745925903
668.401,0.6615448,0.702529907,-0.724349976
678.101,0.681655884,0.732131958,-0.679336548
687.781,0.660888672,0.730651855,-0.625076294
697.453,0.62512207,0.720504761,-0.558044434
707.152,0.577545166,0.704406738,-0.509933472
716.836,0.557403564,0.693435669,-0.424575806
726.513,0.531417847,0.684997559,-0.340667725
736.205,0.512283325,0.638931274,-0.256561279
745.889,0.506271362,0.533889771,-0.178741455
755.565,0.425704956,0.589202881,-0.143920898
765.256,0.310943604,0.545974731,-0.241714478
774.939,0.155685425,0.568206787,-0.338256836
784.622,0.101638794,0.650375366,-0.431243896
794.305,0.148086548,0.728759766,-0.525100708
803.983,0.259429932,0.770645142,-0.511352539
813.673,0.38041687,0.816650391,-0.446731567
823.338,0.454071045,0.867904663,-0.378326416
833.035,0.491744995,0.928100586,-0.371444702
842.712,0.494369507,1.015090942,-0.414993286
852.391,0.421051025,1.076934814,-0.402252197
862.065,0.38394165,1.093521118,-0.420974731
871.754,0.375747681,1.035598755,-0.442703247
881.438,0.389953613,0.944488525,-0.367706299
891.125,0.483139038,0.813751221,-0.253189087
900.823,0.545471191,0.769378662,-0.106140137
910.506,0.525756836,0.777420044,-0.123733521
920.175,0.592727661,0.692474365,-0.408554077
929.869,0.664199829,0.566772461,-0.676483154
939.554,0.707366943,0.554641724,-0.848358154
949.236,0.677658081,0.686462402,-0.621200562
958.917,0.57472229,0.801940918,-0.284698486
968.572,0.518218994,0.911895752,-0.235931396
978.28,0.503067017,0.952514648,-0.313354492
987.963,0.50819397,0.933868408,-0.368026733
997.624,0.623260498,0.828277588,-0.339248657
1007.328,0.825408936,0.715698242,-0.288665771
1017.003,0.979125977,0.585388184,-0.219116211
1026.677,0.984832764,0.447662354,-0.188369751
1036.374,0.964752197,0.497817993,-0.134231567
1046.025,0.931518555,0.642379761,-0.112106323
1055.729,0.876937866,0.722167969,-0.239395142
1065.42,0.864837646,0.743652344,-0.314102173
1075.103,0.822372437,0.661865234,-0.215545654
1084.787,0.729873657,0.571884155,0.048690796
1094.457,0.682846069,0.745437622,-0.004241943
1104.15,0.666641235,0.939559937,-0.133331299
1113.833,0.674621582,0.860305786,-0.231719971
1123.516,0.673400879,0.701034546,-0.297714233
1133.199,0.655593872,0.632659912,-0.404541016
1142.882,0.565856934,0.692169189,-0.645797729
1152.565,0.512649536,0.774429321,-0.847869873
1162.236,0.54460144,0.856628418,-0.809509277
1171.933,0.649887085,0.912399292,-0.620437622
1181.615,0.682006836,1.047744751,-0.498687744
1191.29,0.635604858,1.15763855,-0.404876709
1200.981,0.579910278,1.221817017,-0.282623291
1210.664,0.51385498,1.189880371,-0.25177002
1220.336,0.450012207,1.049865723,-0.209411621
1230.033,0.407440186,0.945465088,-0.182922363
1239.716,0.442550659,0.86378479,-0.210357666
1249.394,0.565124512,0.813323975,-0.228134155
1259.084,0.691085815,0.810256958,-0.231292725
1268.766,0.781677246,0.839569092,-0.23840332
1278.442,0.765213013,0.921386719,-0.23274231
1288.127,0.682067871,1.047409058,-0.184020996
1297.793,0.617355347,1.165023804,-0.134994507
1307.493,0.578842163,1.204925537,-0.089385986
1317.161,0.560974121,1.17578125,-0.071334839
1326.848,0.538192749,1.092605591,-0.056838989
1336.529,0.523635864,0.995864868,-0.038955688
1346.218,0.512313843,0.926345825,-0.015686035
1355.902,0.486724854,0.887145996,-0.000701904
1365.503333,0.461227417,0.861328125,0.035583496
1375.203333,0.435287476,0.841049194,0.087524414
1384.878333,0.414733887,0.806350708,0.089736938
1394.570333,0.435409546,0.753494263,0.112960815
1404.253333,0.43687439,0.733200073,0.140533447
1413.912333,0.371673584,0.789123535,0.107772827
1423.624333,0.416091919,0.816192627,0.07472229
1433.306333,0.487762451,0.845123291,0.052062988
1442.992333,0.550567627,0.882522583,0.0415802
1452.676333,0.594055176,0.897979736,0.042129517
1462.358333,0.617828369,0.884735107,0.051605225
1472.044333,0.619354248,0.855651855,0.05821228
1481.728333,0.62336731,0.824539185,0.06199646
1491.411333,0.627044678,0.795333862,0.065490723
1501.095333,0.623733521,0.763137817,0.061813354
1510.779333,0.61541748,0.728469849,0.059585571
1520.454333,0.599868774,0.678771973,0.064453125
1530.147333,0.580947876,0.646072388,0.056930542
1539.829333,0.559844971,0.628540039,0.043289185
1549.507333,0.547332764,0.614273071,0.026306152
1559.133333,0.544631958,0.605941772,-7.63E-05
1568.816333,0.550460815,0.597824097,-0.0209198
1578.485333,0.57244873,0.59286499,-0.037185669
1588.183333,0.567184448,0.591812134,-0.042999268
1597.860333,0.559753418,0.599639893,-0.05758667
1607.543333,0.566650391,0.60887146,-0.07043457
1617.235333,0.576934814,0.630981445,-0.07572937
1626.920333,0.588134766,0.664932251,-0.099487305
1636.602333,0.593017578,0.693435669,-0.13432312
1646.285333,0.584182739,0.708831787,-0.141311646
1655.947333,0.572280884,0.71987915,-0.138549805
1665.652333,0.558776855,0.7396698,-0.143203735
1675.336333,0.547210693,0.767288208,-0.162124634
1684.998333,0.544876099,0.784210205,-0.185165405
1694.702333,0.554138184,0.801879883,-0.217895508
1704.386333,0.583389282,0.820556641,-0.276702881
1714.051333,0.629043579,0.812484741,-0.321334839
1723.754333,0.702667236,0.745864868,-0.34173584
1733.437333,0.781738281,0.623565674,-0.323989868
1743.111333,0.819885254,0.519470215,-0.270202637
1752.778333,0.812744141,0.4662323,-0.247894287
1762.490333,0.778747559,0.476821899,-0.249542236
1772.174333,0.723571777,0.521972656,-0.258728027
1781.858333,0.661422729,0.561691284,-0.282730103
1791.543333,0.60295105,0.609649658,-0.302398682
1801.224333,0.562957764,0.657150269,-0.315856934
1810.910333,0.559783936,0.698226929,-0.320465088
1820.577333,0.590911865,0.733352661,-0.310379028
1830.277333,0.634414673,0.762557983,-0.280044556
1839.957333,0.671844482,0.810440063,-0.245391846
1849.636333,0.707366943,0.874923706,-0.220169067
1859.328333,0.734893799,0.938095093,-0.20980835
1869.001333,0.754089355,0.983352661,-0.219497681
1878.675333,0.76965332,1.002227783,-0.230575562
1888.369333,0.786254883,1.002365112,-0.247924805
1898.046333,0.815551758,1.013656616,-0.267105103
1907.723333,0.848510742,1.033416748,-0.27796936
1917.415333,0.882324219,1.070602417,-0.284805298
1927.104333,0.891082764,1.117614746,-0.279144287
1936.781333,0.868392944,1.149414063,-0.242935181
1946.482333,0.81703186,1.142166138,-0.188156128
1956.147333,0.769577026,1.131408691,-0.121871948
1965.848333,0.731430054,1.101425171,-0.079284668
1975.532333,0.717178345,1.025039673,-0.047805786
1985.205333,0.710083008,0.913284302,-0.021240234
1994.899333,0.69744873,0.814605713,0.000274658
2004.579333,0.681152344,0.734237671,0.000671387
2014.253333,0.664855957,0.67755127,0.007400513
2023.948333,0.657012939,0.636947632,0.039474487
2033.631333,0.663711548,0.61416626,0.066177368
2043.307333,0.682022095,0.610595703,0.109558105
2052.998333,0.703720093,0.634384155,0.173995972
2062.682333,0.724212646,0.663925171,0.237487793
2072.360333,0.727111816,0.687057495,0.29083252
2082.051333,0.712310791,0.699249268,0.307540894
2091.736333,0.694366455,0.709274292,0.29586792
2101.420333,0.676971436,0.704498291,0.242874146
2111.102333,0.660980225,0.702789307,0.200180054
2120.764333,0.648620605,0.708328247,0.179885864
2130.464333,0.644805908,0.694152832,0.149108887
2140.152333,0.649993896,0.656585693,0.106674194
2149.808333,0.655670166,0.618484497,0.071426392
2159.518333,0.65447998,0.591629028,0.040313721
2169.203333,0.647171021,0.571105957,0.026382446
2178.864333,0.639144897,0.558609009,0.022323608
2188.570333,0.630905151,0.542327881,0.01461792
2198.251333,0.627029419,0.523834229,0.011016846
2207.917333,0.629486084,0.50579834,0
2217.619333,0.635452271,0.486328125,-0.003356934
2227.302333,0.646331787,0.466506958,-0.017471313
2236.978333,0.66229248,0.456634521,-0.031417847
2246.669333,0.683120728,0.451217651,-0.058364868
2256.352333,0.700927734,0.456512451,-0.081436157
2266.035333,0.698226929,0.470733643,-0.112930298
2275.717333,0.699661255,0.488571167,-0.144836426
2285.401333,0.684585571,0.527114868,-0.197769165
2295.085333,0.685974121,0.56288147,-0.228729248
2304.769333,0.689376831,0.583755493,-0.23840332
2314.442333,0.685440063,0.607147217,-0.233459473
2324.136333,0.670059204,0.630218506,-0.216873169
2333.814333,0.665847778,0.643920898,-0.186935425
2343.476333,0.651824951,0.663848877,-0.157165527
2353.187333,0.649078369,0.671264648,-0.126785278
2362.855333,0.647125244,0.677536011,-0.113327026
2372.551333,0.654388428,0.67741394,-0.10824585
2382.233333,0.673706055,0.688415527,-0.112792969
2391.918333,0.702774048,0.708023071,-0.121368408
2401.577333,0.744812012,0.740737915,-0.124420166
2411.256333,0.808609009,0.755859375,-0.127639771
2420.952333,0.880874634,0.768676758,-0.127868652
2430.630333,0.961364746,0.761825562,-0.122055054
2440.313333,1.042114258,0.749328613,-0.121383667
2449.982333,1.101348877,0.746261597,-0.118164063
2459.693333,1.146560669,0.740890503,-0.127166748
2469.375333,1.200775146,0.741256714,-0.137283325
2479.035333,1.262771606,0.777282715,-0.146621704
2488.742333,1.314788818,0.837036133,-0.149414063
2498.425333,1.322021484,0.899490356,-0.117156982
2508.083333,1.279388428,0.928527832,-0.066085815
2517.793333,1.228500366,0.932556152,0.01423645
2527.475333,1.158172607,0.927398682,0.098510742
2537.141333,1.046142578,0.898803711,0.169433594
2546.840333,0.910720825,0.840621948,0.205810547
2556.523333,0.774719238,0.773010254,0.237869263
2566.205333,0.641235352,0.727737427,0.259780884
2575.886333,0.524368286,0.702850342,0.265625
2585.570333,0.437438965,0.678894043,0.244216919
2595.254333,0.381790161,0.676879883,0.207443237
2604.937333,0.342102051,0.715087891,0.195449829
2614.594333,0.322540283,0.786529541,0.199523926
2624.304333,0.314987183,0.869171143,0.200057983
2633.987333,0.313995361,0.93951416,0.196792603
2643.647333,0.330154419,0.984237671,0.192245483
2653.355333,0.36000061,1.001342773,0.179931641
2663.033333,0.400985718,0.980072021,0.164794922
2672.712333,0.424728394,0.941955566,0.163223267
2682.406333,0.442443848,0.884857178,0.150436401
2692.091333,0.465927124,0.824417114,0.133743286
2701.767333,0.488937378,0.773117065,0.104507446
2711.459333,0.513809204,0.726730347,0.059570313
2721.144333,0.543991089,0.701095581,0.024734497
2730.827333,0.573883057,0.67628479,-0.002120972
2740.511333,0.603118896,0.65335083,-0.033752441
2750.184333,0.619445801,0.630737305,-0.053771973
2759.879333,0.63218689,0.611846924,-0.066299438
2769.564333,0.648361206,0.593978882,-0.074951172
2779.247333,0.652328491,0.577270508,-0.089324951
2788.930333,0.649017334,0.567199707,-0.096847534
2798.615333,0.646636963,0.555755615,-0.102539063
2808.288333,0.654220581,0.547592163,-0.112792969
2817.955333,0.654403687,0.551879883,-0.123764038
2827.663333,0.65385437,0.572540283,-0.137527466
2837.337333,0.648635864,0.592025757,-0.156539917
2847.019333,0.651535034,0.607452393,-0.183319092
2856.713333,0.65725708,0.611846924,-0.204574585
2866.395333,0.661071777,0.604263306,-0.219146729
2876.017333,0.667907715,0.595535278,-0.227508545
2885.702333,0.681228638,0.580963135,-0.228775024
2895.363333,0.699737549,0.560058594,-0.22354126
2905.070333,0.719039917,0.539489746,-0.214187622
2914.749333,0.746047974,0.523895264,-0.230361938
2924.439333,0.776199341,0.513031006,-0.285614014
2934.123333,0.818313599,0.495559692,-0.374526978
2943.806333,0.846343994,0.479797363,-0.443267822
2953.490333,0.849243164,0.479324341,-0.415756226
2963.173333,0.816085815,0.514709473,-0.291000366
2972.859333,0.776657104,0.578689575,-0.16545105
2982.542333,0.761444092,0.65562439,-0.098052979
2992.225333,0.776199341,0.706878662,-0.077682495
3001.907333,0.790237427,0.736633301,-0.084564209
3011.581333,0.803909302,0.742996216,-0.102478027
3021.268333,0.824905396,0.741226196,-0.152557373
3030.959333,0.843460083,0.774200439,-0.304779053
3040.636333,0.864395142,0.790313721,-0.549972534
3050.305333,0.870559692,0.745727539,-0.686172485
3059.988333,0.856033325,0.688217163,-0.546081543
3069.687333,0.838256836,0.749160767,-0.27406311
3079.355333,0.849502563,0.88482666,-0.095733643
3089.039333,0.892120361,0.998397827,-0.044174194
3098.741333,0.924209595,1.077545166,-0.00491333
3108.425333,0.888778687,1.123596191,0.040084839
3118.108333,0.833084106,1.151382446,0.088272095
3127.793333,0.765533447,1.190658569,0.146453857
3137.466333,0.684509277,1.186691284,0.177032471
3147.160333,0.602416992,1.167160034,0.211013794
3156.843333,0.555679321,1.075622559,0.243011475
3166.520333,0.554229736,0.92829895,0.262496948
3176.210333,0.568023682,0.783294678,0.241607666
3185.892333,0.598129272,0.696990967,0.199630737
3195.559333,0.647994995,0.678604126,0.181060791
3205.259333,0.73147583,0.721176147,0.189559937
3214.943333,0.832443237,0.786895752,0.206863403
3224.612333,0.91267395,0.835479736,0.239532471
3234.309333,0.968185425,0.842758179,0.25553894
3243.991333,0.966491699,0.789306641,0.233184814
3253.674333,0.911880493,0.701126099,0.178909302
3263.356333,0.826004028,0.608337402,0.123901367
3273.026333,0.73866272,0.523513794,0.093063354
3282.718333,0.671630859,0.459869385,0.066497803
3292.398333,0.62538147,0.417129517,0.0574646
3302.078333,0.595367432,0.386688232,0.052764893
3311.762333,0.574127197,0.375228882,0.053039551
3321.444333,0.562698364,0.37550354,0.05645752
3331.100333,0.568511963,0.382553101,0.054138184
3340.809333,0.576538086,0.394241333,0.049743652
3350.491333,0.597640991,0.416168213,0.038772583
3360.161333,0.605529785,0.445068359,0.012496948
3369.854333,0.611129761,0.469192505,-0.005905151
3379.536333,0.615203857,0.496627808,-0.017333984
3389.209333,0.620956421,0.526580811,-0.029174805
3398.897333,0.621994019,0.56072998,-0.033843994
3408.569333,0.62272644,0.599441528,-0.054611206
3418.259333,0.63130188,0.637023926,-0.068710327
3427.940333,0.641937256,0.673675537,-0.071563721
3437.599333,0.655685425,0.699569702,-0.070831299
3447.302333,0.667953491,0.717498779,-0.069198608
3456.984333,0.690582275,0.717330933,-0.066497803
3466.659333,0.721450806,0.71836853,-0.068191528
3476.333333,0.750518799,0.720779419,-0.071411133
3486.034333,0.771179199,0.726821899,-0.079330444
3495.713333,0.779571533,0.725189209,-0.101760864
3505.400333,0.787887573,0.709854126,-0.123504639
3515.059333,0.786560059,0.686691284,-0.156982422
3524.741333,0.766571045,0.674728394,-0.18421936
3534.440333,0.758163452,0.686721802,-0.209793091
3544.132333,0.77142334,0.699356079,-0.23046875
3553.799333,0.813156128,0.708145142,-0.248260498
3563.485333,0.874801636,0.697814941,-0.263626099
3573.168333,0.974517822,0.65512085,-0.252243042
3582.853333,1.045715332,0.633010864,-0.21522522
3592.537333,1.082763672,0.607589722,-0.167800903
3602.219333,1.115783691,0.587387085,-0.134918213
3611.920333,1.159378052,0.572692871,-0.119628906
3621.603333,1.21836853,0.582565308,-0.136978149
3631.271333,1.264160156,0.629272461,-0.176025391
3640.970333,1.270904541,0.712112427,-0.19960022
3650.655333,1.228683472,0.790969849,-0.194442749
3660.335333,1.123382568,0.817306519,-0.143447876
3670.022333,0.998550415,0.77696228,-0.07762146
3679.707333,0.895492554,0.734848022,-0.016433716
3689.383333,0.815368652,0.711883545,0.052200317
3699.074333,0.737365723,0.702011108,0.114196777
3708.757333,0.655212402,0.694595337,0.172653198
3718.442333,0.590515137,0.687606812,0.232315063
3728.103333,0.545944214,0.693832397,0.276565552
3737.808333,0.507980347,0.724151611,0.296981812
3747.490333,0.485916138,0.778930664,0.304870605
3757.173333,0.508300781,0.869552612,0.308288574
3766.830333,0.563171387,0.979476929,0.30015564
3776.539333,0.624465942,1.067962646,0.282119751
3786.222333,0.654815674,1.14239502,0.266418457
3795.880333,0.644897461,1.169708252,0.258773804
3805.587333,0.605575562,1.104797363,0.236801147
3815.269333,0.56602478,0.966766357,0.203567505
3824.936333,0.529083252,0.830474854,0.167297363
3834.633333,0.506866455,0.719711304,0.123703003
3844.316333,0.49822998,0.645095825,0.084655762
3853.995333,0.496520996,0.588745117,0.051254272
3863.681333,0.50630188,0.557327271,0.022232056
3873.361333,0.509811401,0.537872314,-4.58E-05
3883.042333,0.519714355,0.515029907,-0.021636963
3892.725333,0.531066895,0.496917725,-0.03755188
3902.390333,0.535614014,0.489364624,-0.045425415
3912.092333,0.546463013,0.479934692,-0.058013916
3921.774333,0.564834595,0.479919434,-0.06439209
3931.442333,0.596878052,0.483520508,-0.073181152
3941.141333,0.626281738,0.498718262,-0.093826294
3950.824333,0.655975342,0.533401489,-0.130493164
3960.495333,0.680084229,0.564590454,-0.246383667
3970.169333,0.693359375,0.613754272,-0.736907959
3979.867333,0.698669434,0.624862671,-0.912902832
3989.548333,0.675231934,0.592193604,-0.436569214
3999.213333,0.621826172,0.589157104,-0.155639648
4008.909333,0.602966309,0.613052368,-0.089050293
4018.599333,0.630187988,0.643875122,-0.083358765
4028.281333,0.665893555,0.651199341,-0.082687378
4037.949333,0.697219849,0.641448975,-0.092102051
4047.633333,0.728485107,0.610702515,-0.134979248
4057.316333,0.772155762,0.536300659,-0.278961182
4066.998333,0.828781128,0.44291687,-0.524795532
4076.681333,0.871170044,0.407974243,-0.624603271
4086.381333,0.851287842,0.48135376,-0.42199707
4096.054333,0.784225464,0.585418701,-0.179107666
4105.745333,0.733581543,0.66293335,-0.06427002
4115.428333,0.721359253,0.711746216,-0.054168701
4125.083333,0.735321045,0.758728027,-0.052536011
4134.793333,0.758804321,0.833557129,-0.056060791
4144.476333,0.790664673,0.902832031,-0.099456787
4154.150333,0.864364624,0.967529297,-0.31338501
4163.843333,0.991348267,0.944335938,-0.65663147
4173.527333,1.065216064,0.805938721,-0.682693481
4183.204333,1.019210815,0.795654297,-0.353668213
4192.894333,0.980484009,0.895690918,-0.120620728
4202.578333,0.993682861,1.028671265,-0.05921936
4212.263333,1.014404297,1.135192871,-0.034469604
4221.946333,0.994400024,1.175430298,0.022277832
4231.629333,0.923278809,1.150344849,0.094085693
4241.314333,0.810531616,1.089736938,0.169143677
4250.999333,0.688400269,1.017227173,0.220046997
4260.666333,0.583450317,0.942565918,0.247390747
4270.366333,0.509490967,0.841018677,0.255615234
4280.049333,0.482437134,0.717285156,0.25491333
4289.732333,0.491470337,0.610229492,0.226165771
4299.417333,0.521148682,0.560012817,0.185897827
4309.102333,0.570327759,0.587463379,0.147537231
4318.777333,0.666885376,0.65586853,0.138931274
4328.469333,0.803237915,0.735824585,0.151138306
4338.150333,0.947952271,0.825958252,0.174560547
4347.805333,1.036315918,0.885162354,0.206390381
4357.509333,1.052886963,0.881607056,0.214706421
4367.204333,1.013183594,0.816436768,0.184143066
4376.887333,0.924133301,0.725708008,0.137680054
4386.551333,0.825424194,0.643341064,0.10218811
4396.225333,0.752059937,0.585479736,0.083526611
4405.937333,0.694580078,0.553436279,0.081253052
4415.619333,0.646240234,0.535491943,0.081848145
4425.277333,0.602508545,0.529067993,0.08026123
4434.985333,0.563491821,0.544616699,0.081466675
4444.668333,0.525192261,0.566421509,0.076293945
4454.349333,0.502700806,0.576248169,0.066116333
4464.036333,0.488021851,0.584106445,0.050292969
4473.709333,0.49029541,0.589614868,0.025650024
4483.394333,0.498291016,0.598327637,0.010971069
4493.085333,0.503234863,0.604446411,-0.009902954
4502.762333,0.510818481,0.618118286,-0.021179199
4512.437333,0.511489868,0.637115479,-0.032546997
4522.131333,0.517166138,0.653625488,-0.047271729
4531.814333,0.534835815,0.657958984,-0.061645508
4541.500333,0.551803589,0.665344238,-0.068435669
4551.169333,0.583908081,0.656921387,-0.068756104
4560.867333,0.620834351,0.648178101,-0.062713623
4570.538333,0.662612915,0.636581421,-0.059341431
4580.222333,0.703063965,0.628234863,-0.0493927
4589.920333,0.744552612,0.627990723,-0.04850769
4599.544333,0.78515625,0.624191284,-0.044708252
4609.221333,0.808853149,0.625045776,-0.053070068
4618.901333,0.822860718,0.621444702,-0.070739746
4628.589333,0.822341919,0.626251221,-0.095901489
4638.263333,0.813949585,0.639602661,-0.139984131
4647.949333,0.813522339,0.649719238,-0.186630249
4657.623333,0.815719604,0.655761719,-0.23046875
4667.308333,0.823562622,0.663726807,-0.242996216
4676.989333,0.831863403,0.665374756,-0.255950928
4686.674333,0.830688477,0.652008057,-0.243728638
4696.373333,0.846862793,0.615219116,-0.217559814
4706.038333,0.878662109,0.579299927,-0.180786133
4715.727333,0.913650513,0.554748535,-0.146133423
4725.421333,0.962051392,0.536529541,-0.117645264
4735.104333,1.014862061,0.532974243,-0.109695435
4744.786333,1.079727173,0.552749634,-0.127929688
4754.467333,1.140960693,0.61114502,-0.171234131
4764.150333,1.184616089,0.721008301,-0.209274292
4773.832333,1.223999023,0.842346191,-0.216018677
4783.507333,1.25630188,0.945632935,-0.165298462
4793.197333,1.232635498,0.991699219,-0.07522583
4802.880333,1.151016235,0.974838257,0.010223389
4812.534333,1.020904541,0.922653198,0.082794189
4822.242333,0.864883423,0.847122192,0.134292603
4831.923333,0.711746216,0.764038086,0.179122925
4841.598333,0.584274292,0.690460205,0.225814819
4851.286333,0.495223999,0.648590088,0.272323608
4860.968333,0.438095093,0.644348145,0.313705444
4870.650333,0.409637451,0.680084229,0.348724365
4880.332333,0.415100098,0.73487854,0.364486694
4890.015333,0.446456909,0.817489624,0.359786987
4899.698333,0.497848511,0.89453125,0.334991455
4909.380333,0.557235718,0.963348389,0.326721191
4919.035333,0.592544556,1.025894165,0.35597229
4928.743333,0.607345581,1.062301636,0.378509521
4938.425333,0.617889404,1.029525757,0.371429443
4948.089333,0.61026001,0.935760498,0.322235107
4957.788333,0.587768555,0.833358765,0.261657715
4967.469333,0.56578064,0.742935181,0.207275391
4977.126333,0.550430298,0.667205811,0.157958984
4986.834333,0.545700073,0.609786987,0.108261108
4996.516333,0.542831421,0.563064575,0.074005127
5006.190333,0.545425415,0.532196045,0.052536011
5015.880333,0.558395386,0.524963379,0.043502808
5025.560333,0.571792603,0.524765015,0.02532959
5035.243333,0.575241089,0.525604248,0.00227356
5044.920333,0.581481934,0.52015686,-0.010437012
5054.608333,0.595458984,0.514556885,-0.021774292
5064.291333,0.614883423,0.522613525,-0.033584595
5073.973333,0.633804321,0.534667969,-0.044464111
5083.648333,0.653198242,0.549880981,-0.057250977
5093.338333,0.665679932,0.579025269,-0.071411133
5103.020333,0.671722412,0.610122681,-0.081100464
5112.700333,0.663406372,0.634262085,-0.113861084
5122.383333,0.654281616,0.650772095,-0.147949219
5132.067333,0.644165039,0.659729004,-0.190826416
5141.735333,0.646133423,0.663543701,-0.295852661
5151.427333,0.668807983,0.647781372,-0.611297607
5161.116333,0.725952148,0.568893433,-0.897796631
5170.776333,0.775436401,0.488082886,-0.698425293
5180.481333,0.765548706,0.502471924,-0.354782104
5190.162333,0.741119385,0.562515259,-0.165283203
5199.847333,0.734603882,0.607040405,-0.089279175
5209.515333,0.745559692,0.618179321,-0.082962036
5219.207333,0.756790161,0.616363525,-0.121246338
5228.886333,0.772918701,0.617706299,-0.161636353
5238.568333,0.784362793,0.635055542,-0.179794312
5248.257333,0.78805542,0.681137085,-0.169815063
5257.950333,0.78213501,0.763961792,-0.16506958
5267.634333,0.791259766,0.838729858,-0.157714844
5277.312333,0.833236694,0.889648438,-0.180023193
5287.000333,0.900741577,0.904022217,-0.25050354
5296.678333,0.9868927,0.858062744,-0.348693848
5306.356333,1.040344238,0.79574585,-0.427261353
5316.049333,1.045639038,0.774932861,-0.383728027
5325.731333,1.040618896,0.841720581,-0.241897583
5335.416333,1.04309082,0.94569397,-0.118057251
5345.100333,1.024551392,1.009246826,-0.062973022
5354.785333,0.978149414,1.023300171,-0.015899658
5364.467333,0.915115356,1.012191772,0.039764404
5374.150333,0.84576416,1.003051758,0.095443726
5383.818333,0.772872925,0.983840942,0.140609741
5393.517333,0.697433472,0.955718994,0.170776367
5403.201333,0.630447388,0.919067383,0.191299438
5412.871333,0.580062866,0.860717773,0.209671021
5422.568333,0.556915283,0.780288696,0.219573975
5432.250333,0.55027771,0.702087402,0.217559814
5441.907333,0.564163208,0.656173706,0.192855835
5451.616333,0.608520508,0.645675659,0.158782959
5461.300333,0.67527771,0.663925171,0.15524292
5470.975333,0.764373779,0.714294434,0.165557861
5480.666333,0.84286499,0.770477295,0.190216064
5490.349333,0.888000488,0.806137085,0.219619751
5500.028333,0.891799927,0.805343628,0.245437622
5509.652333,0.854156494,0.777206421,0.25402832
5519.334333,0.779495239,0.732589722,0.237457275
5529.002333,0.7056427,0.683609009,0.205169678
5538.700333,0.639160156,0.639221191,0.182159424
5548.379333,0.592086792,0.603988647,0.151184082
5558.067333,0.559448242,0.57635498,0.132858276
5567.752333,0.537963867,0.555267334,0.115432739
5577.435333,0.523254395,0.528869629,0.097290039
5587.119333,0.516906738,0.513702393,0.084823608
5596.802333,0.522598267,0.498519897,0.068252563
5606.475333,0.535980225,0.490219116,0.055038452
5616.169333,0.548461914,0.482727051,0.052871704
5625.837333,0.569137573,0.480331421,0.050247192
5635.511333,0.596954346,0.482406616,0.046325684
5645.217333,0.619873047,0.48348999,0.033508301
5654.898333,0.647109985,0.48928833,0.017074585
5664.572333,0.678939819,0.504135132,0.002853394
5674.263333,0.701553345,0.521148682,-0.00592041
5683.945333,0.723251343,0.539642334,-0.026046753
5693.622333,0.741638184,0.55506897,-0.049209595
5703.283333,0.75541687,0.567520142,-0.072113037
5712.994333,0.765411377,0.580001831,-0.104644775
5722.678333,0.769393921,0.581268311,-0.133666992
5732.361333,0.781051636,0.584259033,-0.163208008
5742.017333,0.795150757,0.590072632,-0.179138184
5751.720333,0.791915894,0.590560913,-0.173446655
5761.411333,0.796936035,0.581558228,-0.163391113
5771.071333,0.802429199,0.579971313,-0.169036865
5780.774333,0.797653198,0.582305908,-0.181564331
5790.449333,0.790664673,0.603363037,-0.208175659
5800.123333,0.79624939,0.612579346,-0.238845825
5809.816333,0.787719727,0.62991333,-0.26625061
5819.490333,0.804138184,0.63394165,-0.281921387
5829.184333,0.850723267,0.607803345,-0.284164429
5838.860333,0.956253052,0.574905396,-0.230957031
5848.544333,1.052246094,0.574386597,-0.166488647
5858.221333,1.148986816,0.583312988,-0.110733032
5867.909333,1.257583618,0.597503662,-0.07723999
5877.610333,1.333480835,0.609207153,-0.074920654
5887.292333,1.346374512,0.599975586,-0.117935181
5896.976333,1.287597656,0.616317749,-0.19934082
5906.629333,1.23651123,0.700820923,-0.261825562
5916.344333,1.243118286,0.798873901,-0.285186768
5926.027333,1.246109009,0.881500244,-0.253051758
5935.682333,1.184906006,0.900772095,-0.160766602
5945.394333,1.058532715,0.852035522,-0.060943604
5955.076333,0.929031372,0.789718628,0.030700684
5964.734333,0.812759399,0.74130249,0.118301392
5974.440333,0.695648193,0.724014282,0.181900024
5984.122333,0.594741821,0.704467773,0.239318848
5993.798333,0.509811401,0.689178467,0.294418335
6003.490333,0.428283691,0.672561646,0.330108643
6013.175333,0.389190674,0.68989563,0.36882019
6022.860333,0.382888794,0.756591797,0.443008423
6032.514333,0.424880981,0.850097656,0.510726929
6042.227333,0.479598999,0.961853027,0.539138794
6051.911333,0.519134521,1.045135498,0.518692017
6061.594333,0.553787231,1.115859985,0.488265991
6071.271333,0.562698364,1.174972534,0.483688354
6080.961333,0.549880981,1.155578613,0.472808838
6090.644333,0.521362305,1.024490356,0.423141479
6100.314333,0.497146606,0.879943848,0.358505249
6109.999333,0.497573853,0.769760132,0.29725647
6119.691333,0.518310547,0.710372925,0.239700317
6129.348333,0.554214478,0.691253662,0.188446045
6139.057333,0.595611572,0.701828003,0.14465332
6148.740333,0.636108398,0.699035645,0.099517822
6158.417333,0.656204224,0.669647217,0.067871094
6168.106333,0.641357422,0.621063232,0.047195435
6177.788333,0.618942261,0.575485229,0.006866455
6187.472333,0.602752686,0.532714844,-0.019622803
6197.157333,0.590896606,0.480987549,-0.030899048
6206.841333,0.598373413,0.449737549,-0.050094604
6216.504333,0.618713379,0.438156128,-0.068603516
6226.208333,0.638412476,0.445266724,-0.084503174
6235.870333,0.66267395,0.460998535,-0.091537476
6245.559333,0.696792603,0.47795105,-0.121871948
6255.261333,0.738952637,0.492523193,-0.288925171
6264.936333,0.828460693,0.472106934,-1.068328857
6274.609333,0.876647949,0.42199707,-1.233856201
6284.284333,0.74118042,0.440216064,-0.531661987
6293.979333,0.599685669,0.480438232,-0.174331665
6303.659333,0.571640015,0.537094116,-0.076965332
6313.354333,0.628448486,0.614334106,-0.067138672
6323.030333,0.697296143,0.679718018,-0.05632019
6332.716333,0.744125366,0.699539185,-0.039199829
6342.402333,0.757965088,0.674102783,-0.029708862
6352.084333,0.747390747,0.634170532,-0.035812378
6361.716083,0.737228394,0.582778931,-0.083633423
6371.417083,0.760543823,0.474578857,-0.296264648
6381.102083,0.825576782,0.376312256,-0.57333374
6390.787083,0.871520996,0.411331177,-0.564468384
6400.443083,0.851074219,0.565567017,-0.31350708
6410.134083,0.794021606,0.722747803,-0.126251221
6419.838083,0.771408081,0.804977417,-0.050567627
6429.496083,0.752456665,0.855667114,-0.028884888
6439.200083,0.745834351,0.918548584,-0.069274902
6448.891083,0.768768311,0.996444702,-0.18913269
6458.563083,0.820129395,1.081329346,-0.491470337
6468.255083,0.925506592,1.029006958,-0.768630981
6477.939083,1.024353027,0.839950562,-0.665603638
6487.615083,1.028137207,0.844604492,-0.357574463
6497.306083,1.023956299,0.921325684,-0.167297363
6506.990083,1.052337646,0.989074707,-0.068115234
6516.654083,1.067123413,1.0625,-0.001937866
6526.356083,1.028869629,1.082565308,0.065765381
6536.038083,0.938186646,1.032501221,0.118896484
6545.723083,0.825439453,0.947402954,0.165283203
6555.407083,0.71446228,0.858901978,0.185394287
6565.085083,0.627227783,0.792602539,0.214035034
6574.774083,0.572982788,0.743499756,0.248809814
6584.457083,0.544311523,0.699554443,0.268554688
6594.138083,0.550033569,0.668884277,0.28302002
6603.824083,0.589035034,0.662216187,0.274414063
6613.509083,0.654525757,0.674026489,0.25189209
6623.184083,0.742202759,0.710998535,0.242370605
6632.877083,0.83732605,0.759063721,0.247665405
6642.561083,0.915222168,0.802322388,0.261611938
6652.243083,0.95690918,0.822250366,0.282913208
6661.927083,0.948791504,0.826156616,0.28755188
6671.610083,0.883682251,0.797821045,0.268432617
6681.293083,0.791656494,0.761856079,0.239486694
6690.977083,0.707672119,0.720046997,0.201217651
6700.644083,0.639938354,0.67755127,0.17350769
6710.342083,0.592666626,0.642471313,0.155334473
6720.015083,0.548522949,0.612686157,0.142044067
6729.697083,0.514678955,0.581115723,0.118545532
6739.391083,0.489700317,0.551727295,0.0909729
6749.074083,0.472213745,0.529052734,0.06602478
6758.751083,0.462203979,0.51335144,0.044509888
6768.432083,0.471420288,0.495925903,0.031143188
6778.093083,0.482849121,0.487701416,0.020217896
6787.795083,0.509765625,0.47869873,0.020202637
6797.478083,0.529830933,0.470962524,0.010955811
6807.158083,0.546264648,0.476608276,0.003189087
6816.843083,0.567977905,0.486251831,-0.003555298
6826.510083,0.596115112,0.501235962,-0.01184082
6836.185083,0.627029419,0.520202637,-0.024246216
6845.869083,0.654296875,0.546066284,-0.048690796
6855.559083,0.684494019,0.571289063,-0.07069397
6865.240083,0.711471558,0.599304199,-0.089370728
6874.926083,0.738983154,0.61958313,-0.113769531
6884.626083,0.759979248,0.640045166,-0.136642456
6894.309083,0.779495239,0.659164429,-0.146560669
6903.992083,0.810760498,0.663360596,-0.142593384
6913.676083,0.831390381,0.673812866,-0.142532349
6923.348083,0.835845947,0.686920166,-0.156265259
6933.043083,0.838058472,0.685470581,-0.189804077
6942.727083,0.833053589,0.674285889,-0.226394653
6952.397083,0.828979492,0.66293335,-0.260116577
6962.093083,0.828231812,0.651565552,-0.292861938
6971.770083,0.831329346,0.648178101,-0.329879761
6981.459083,0.846923828,0.626754761,-0.330871582
6991.143083,0.895553589,0.61151123,-0.239639282
7000.827083,0.942962646,0.618652344,-0.153701782
7010.511083,0.974716187,0.629180908,-0.093566895
7020.194083,0.996398926,0.643127441,-0.054885864
7029.868083,1.033493042,0.650466919,-0.029678345
7039.560083,1.069259644,0.654785156,-0.034576416
7049.243083,1.082366943,0.659378052,-0.079589844
7058.921083,1.062896729,0.696426392,-0.149978638
7068.610083,1.069580078,0.762435913,-0.21472168
7078.294083,1.109619141,0.839691162,-0.257415771
7087.968083,1.168395996,0.912506104,-0.275085449
7097.662083,1.210891724,0.948181152,-0.229690552
7107.345083,1.16696167,0.920654297,-0.12550354
7117.028083,1.070404053,0.861099243,-0.00617981
7126.686083,0.981140137,0.822372437,0.083435059
7136.394083,0.87739563,0.790466309,0.152313232
7146.076083,0.770965576,0.750854492,0.205093384
7155.760083,0.660263062,0.696029663,0.238861084
7165.443083,0.552627563,0.646987915,0.266403198
7175.119083,0.468963623,0.627487183,0.303955078
7184.810083,0.414810181,0.648284912,0.363952637
7194.491083,0.391601563,0.710800171,0.417373657
7204.176083,0.412490845,0.801818848,0.457260132
7213.857083,0.455307007,0.884307861,0.450286865
7223.533083,0.507507324,0.963607788,0.428207397
7233.222083,0.563934326,1.050460815,0.40246582
7242.906083,0.597625732,1.112243652,0.375686646
7252.577083,0.607513428,1.112533569,0.35043335
7262.274083,0.591339111,1.018707275,0.310943604
7271.957083,0.556991577,0.877044678,0.271408081
7281.626083,0.53805542,0.763412476,0.23374939
7291.321083,0.535995483,0.6927948,0.187576294
7300.987083,0.553970337,0.656936646,0.147705078
7310.663083,0.568435669,0.639175415,0.111862183
7320.361083,0.577774048,0.608947754,0.080093384
7330.040083,0.578536987,0.570327759,0.052337646
7339.735083,0.57598877,0.543914795,0.025085449
7349.413083,0.579437256,0.524963379,-0.001098633
7359.092083,0.582885742,0.511184692,-0.02104187
7368.762083,0.592224121,0.49407959,-0.032012939
7378.451083,0.609664917,0.489578247,-0.049163818
7388.129083,0.627471924,0.497283936,-0.067016602
7397.811083,0.639648438,0.514633179,-0.068023682
7407.510083,0.656265259,0.529724121,-0.070419312
7417.186083,0.669769287,0.549468994,-0.081069946
7426.876083,0.673553467,0.570419312,-0.107910156
7436.546083,0.683609009,0.59854126,-0.212646484
7446.242083,0.694396973,0.638931274,-0.569625854
7455.925083,0.708358765,0.65057373,-0.947433472
7465.598083,0.693649292,0.582199097,-0.734558105
7475.294083,0.643676758,0.536132813,-0.392730713
7484.977083,0.626800537,0.552185059,-0.223022461
7494.651083,0.660598755,0.57963562,-0.156173706
7504.344083,0.712265015,0.60218811,-0.130187988
7514.026083,0.759796143,0.622619629,-0.122573853
7523.703083,0.785018921,0.626235962,-0.14352417
7533.395083,0.801681519,0.588912964,-0.216262817
7543.078083,0.819610596,0.519958496,-0.309661865
7552.753083,0.830047607,0.490524292,-0.325561523
7562.447083,0.811782837,0.530044556,-0.221099854
7572.132083,0.770812988,0.595947266,-0.120834351
7581.809083,0.745071411,0.656738281,-0.078598022
7591.809083,0.738723755,0.709991455,-0.058486938
7601.436083,0.735702515,0.781295776,-0.042068481
7611.120083,0.750793457,0.882019043,-0.081756592
7620.778083,0.798690796,0.959640503,-0.240875244
7630.486083,0.901229858,1.001159668,-0.603775024
7640.163083,1.047485352,0.88470459,-0.824890137
7649.846083,1.082611084,0.789077759,-0.604034424
7659.539083,1.015823364,0.835235596,-0.275787354
7669.223083,1.013259888,0.899230957,-0.087432861
7678.908083,1.038253784,0.995605469,0.004135132
7688.594083,1.033935547,1.082382202,0.085540771
7698.278083,0.997344971,1.123306274,0.160995483
7707.963083,0.91897583,1.101882935,0.215545654
7717.647083,0.818145752,1.022979736,0.254135132
7727.321083,0.726272583,0.92527771,0.265914917
7737.017083,0.652297974,0.856445313,0.274963379
7746.702083,0.598724365,0.809997559,0.271957397
7756.374083,0.574890137,0.769256592,0.268112183
7766.073083,0.584976196,0.719772339,0.258117676
7775.757083,0.612487793,0.690841675,0.237136841
7785.432083,0.668807983,0.694885254,0.235061646
7795.097083,0.749099731,0.727706909,0.255218506
7804.807083,0.836456299,0.776397705,0.281768799
7814.492083,0.901519775,0.820877075,0.299606323
7824.173083,0.933258057,0.839981079,0.305679321
7833.857083,0.914916992,0.817687988,0.294540405
7843.532083,0.848495483,0.765914917,0.255355835
7853.227083,0.753295898,0.705337524,0.206481934
7862.911083,0.674423218,0.660003662,0.172515869
7872.596083,0.610916138,0.624725342,0.152755737
7882.274083,0.561325073,0.592010498,0.145187378
7891.966083,0.518875122,0.570449829,0.135452271
7901.651083,0.478408813,0.559295654,0.119888306
7911.312083,0.450119019,0.547348022,0.100234985
7921.016083,0.434066772,0.535751343,0.077728271
7930.681083,0.437240601,0.521408081,0.052612305
7940.371083,0.447845459,0.519577026,0.023162842
7950.050083,0.485580444,0.50642395,0.007202148
7959.741083,0.518783569,0.496841431,-0.009384155
7969.430083,0.541137695,0.500442505,-0.025604248
7979.126083,0.56362915,0.516082764,-0.027587891
7988.810083,0.591430664,0.5390625,-0.024276733
7998.470083,0.618225098,0.557617188,-0.022521973
8008.178083,0.642562866,0.579864502,-0.027526855
8017.861083,0.661087036,0.599716187,-0.034515381
8027.523083,0.677627563,0.618057251,-0.059005737
8037.227083,0.697265625,0.6302948,-0.07321167
8046.901083,0.714263916,0.637298584,-0.091094971
8056.575083,0.736572266,0.642028809,-0.100296021
8066.279083,0.764526367,0.643432617,-0.101013184
8075.963083,0.78527832,0.64225769,-0.102279663
8085.621083,0.803100586,0.63848877,-0.10369873
8095.331083,0.81652832,0.630187988,-0.107315063
8105.015083,0.820236206,0.62600708,-0.121002197
8114.691083,0.81690979,0.622390747,-0.152450562
8124.382083,0.806015015,0.627120972,-0.197601318
8134.065083,0.807754517,0.628707886,-0.242401123
8143.747083,0.822387695,0.626861572,-0.272232056
8153.430083,0.848358154,0.628204346,-0.268417358
8163.112083,0.886154175,0.623001099,-0.239196777
8172.789083,0.930114746,0.603805542,-0.186004639
8182.480083,0.964614868,0.608642578,-0.128204346
8192.134083,1.003005981,0.61517334,-0.083435059
8201.846083,1.048187256,0.616546631,-0.073867798
8211.529083,1.08253479,0.621917725,-0.093933105
8221.208083,1.0809021,0.638763428,-0.15385437
8230.896083,1.055221558,0.668060303,-0.216964722
8240.580083,1.041931152,0.717330933,-0.274002075
8250.240083,1.077804565,0.772766113,-0.308380127
8259.947083,1.140853882,0.839691162,-0.291625977
8269.630083,1.201904297,0.902786255,-0.206771851
8279.305083,1.173522949,0.909423828,-0.08996582
8288.998083,1.072357178,0.882766724,0.02180481
8298.680083,0.968536377,0.850509644,0.105239868
8308.364083,0.848220825,0.819351196,0.16178894
8318.046083,0.729354858,0.776290894,0.207427979
8327.718083,0.621353149,0.722976685,0.239532471
8337.412083,0.526809692,0.685836792,0.271072388
8347.096083,0.458480835,0.68711853,0.326293945
8356.756083,0.438522339,0.722503662,0.374069214
8366.463083,0.450744629,0.792236328,0.400009155
8376.141083,0.503128052,0.866119385,0.391113281
8385.829083,0.570510864,0.940216064,0.376602173
8395.515083,0.62928772,1.05368042,0.388473511
8405.178083,0.660369873,1.149169922,0.404769897
8414.882083,0.653610229,1.154205322,0.394836426
8424.541083,0.612442017,1.039993286,0.334289551
8434.249083,0.559646606,0.877410889,0.265792847
8443.916083,0.51940918,0.748123169,0.214431763
8453.610083,0.505187988,0.656845093,0.170700073
8463.280083,0.516418457,0.605636597,0.132461548
8472.972083,0.541976929,0.590621948,0.101608276
8482.656083,0.572570801,0.577484131,0.071136475
8492.351083,0.589279175,0.567077637,0.036468506
8502.040083,0.591491699,0.556060791,0.033157349
8511.722083,0.593185425,0.527877808,0.014785767
8521.389083,0.606155396,0.50604248,-0.004058838
8531.085083,0.605651855,0.48399353,-0.025924683
8540.771083,0.600341797,0.465652466,-0.044128418
8550.429083,0.610015869,0.460922241,-0.065490723
8560.138083,0.629776001,0.470336914,-0.075637817
8569.821083,0.664733887,0.49168396,-0.104934692
8579.497083,0.707092285,0.534896851,-0.288345337
8589.189083,0.782913208,0.561157227,-0.976730347
8598.873083,0.789337158,0.542160034,-0.972717285
8608.547083,0.658599854,0.531921387,-0.418991089
8618.241083,0.548095703,0.548568726,-0.163131714
8627.924083,0.533218384,0.588119507,-0.108657837
8637.607083,0.580169678,0.650497437,-0.098968506
8647.291083,0.634231567,0.709335327,-0.086868286
8656.948083,0.678222656,0.705490112,-0.064086914
8666.657083,0.700256348,0.658035278,-0.024017334
8676.342083,0.698654175,0.608032227,-0.004837036
8686.001083,0.699752808,0.561706543,-0.010131836
8695.710083,0.719451904,0.504196167,-0.104431152
8705.392083,0.770767212,0.416748047,-0.363464355
8715.053083,0.826828003,0.377075195,-0.569488525
8724.759083,0.830169678,0.468933105,-0.456375122
8734.442083,0.758712769,0.654220581,-0.232055664
8744.119083,0.716583252,0.772766113,-0.105407715
8753.808083,0.72668457,0.828552246,-0.066879272
8763.484083,0.754730225,0.873519897,-0.074279785
8773.176083,0.796401978,0.919631958,-0.118209839
8782.859083,0.866638184,0.942382813,-0.242980957
8792.537083,0.983917236,0.856521606,-0.502426147
8802.225083,1.089645386,0.682632446,-0.767593384
8811.908083,1.106689453,0.569015503,-0.741989136
8821.587083,1.080657959,0.614471436,-0.419921875
8831.274083,1.063613892,0.782745361,-0.138977051
8840.956083,1.06993103,0.925552368,-0.054779053
8850.612083,1.070068359,0.994445801,-0.031219482
8860.317083,1.019042969,1.013916016,0.041870117
8870.006083,0.93157959,0.994400024,0.096359253
8879.680083,0.818557739,0.944717407,0.151489258
8889.369083,0.713699341,0.892028809,0.199127197
8899.057083,0.625228882,0.846847534,0.23526001
8908.733083,0.562530518,0.816955566,0.269195557
8918.417083,0.529907227,0.809280396,0.30291748
8928.096083,0.514404297,0.804489136,0.319396973
8937.767083,0.526306152,0.782440186,0.333999634
8947.473083,0.559234619,0.767105103,0.321258545
8957.157083,0.623825073,0.782302856,0.303329468
8966.840083,0.704315186,0.810806274,0.289916992
8976.524083,0.777618408,0.845001221,0.295623779
8986.202083,0.829116821,0.869949341,0.29725647
8995.890083,0.855895996,0.885437012,0.298248291
9005.574083,0.855331421,0.882629395,0.262451172
9015.254083,0.824584961,0.844940186,0.20993042
9024.940083,0.764190674,0.776580811,0.161773682
9034.624083,0.703430176,0.71925354,0.125900269
9044.292083,0.662246704,0.669616699,0.102630615
9053.990083,0.628662109,0.628875732,0.091873169
9063.655083,0.590438843,0.601852417,0.078125
9073.354083,0.556152344,0.580825806,0.069076538
9083.038083,0.53112793,0.561538696,0.05708313
9092.720083,0.515411377,0.534912109,0.037185669
9102.403083,0.50718689,0.514816284,0.016052246
9112.086083,0.509338379,0.496963501,0.007629395
9121.761083,0.525009155,0.49458313,-0.001296997
9131.451083,0.533325195,0.499633789,-0.01348877
9141.133083,0.544876099,0.522842407,-0.021575928
9150.814083,0.567169189,0.550323486,-0.034179688
9160.497083,0.584640503,0.582107544,-0.047805786
9170.179083,0.593658447,0.608261108,-0.0599823
9179.836083,0.60345459,0.62147522,-0.068161011
9189.542083,0.616348267,0.628372192,-0.070770264
9199.230083,0.636352539,0.635360718,-0.072875977
9208.905083,0.661224365,0.636566162,-0.074737549
9218.595083,0.689102173,0.643432617,-0.079986572
9228.278083,0.728347778,0.64112854,-0.085327148
9237.961083,0.772903442,0.635070801,-0.092971802
9247.643083,0.81187439,0.628753662,-0.114334106
9257.327083,0.847808838,0.617263794,-0.14944458
9266.994083,0.8722229,0.60118103,-0.180007935
9276.691083,0.880889893,0.590515137,-0.203979492
9286.373083,0.883285522,0.573577881,-0.227676392
9296.058083,0.856674194,0.579986572,-0.253967285
9305.743083,0.831619263,0.583908081,-0.261672974
9315.407083,0.850830078,0.572692871,-0.240447998
9325.081083,0.893035889,0.559082031,-0.195266724
9334.774083,0.943084717,0.563171387,-0.149261475
9344.463083,0.991333008,0.571762085,-0.107437134
9354.159083,1.040756226,0.582427979,-0.071746826
9363.840083,1.103729248,0.590026855,-0.054229736
9373.501083,1.16078186,0.590988159,-0.055297852
9383.204083,1.184768677,0.588485718,-0.081161499
9392.880083,1.178375244,0.602767944,-0.141433716
9402.551083,1.173156738,0.66204834,-0.216598511
9412.235083,1.193725586,0.760665894,-0.258926392
9421.932083,1.221206665,0.878845215,-0.268478394
9431.600083,1.231842041,0.977905273,-0.216079712
9441.283083,1.176834106,0.996582031,-0.11756897
9450.974083,1.071670532,0.945053101,-0.010040283
9460.666083,0.954315186,0.886581421,0.106689453
9470.348083,0.83253479,0.824645996,0.185958862
9480.007083,0.700393677,0.764846802,0.241134644
9489.714083,0.584060669,0.713134766,0.279129028
9499.396083,0.487350464,0.678237915,0.324768066
9509.070083,0.423324585,0.677688599,0.376434326
9518.762083,0.392272949,0.709243774,0.408462524
9528.444083,0.394317627,0.771102905,0.422393799
9538.126083,0.425857544,0.85585022,0.42338562
9547.811083,0.474441528,0.953582764,0.424041748
9557.491083,0.523712158,1.030639648,0.412704468
9567.176083,0.575302124,1.115142822,0.394073486
9576.858083,0.596191406,1.140274048,0.362960815
9586.513083,0.592956543,1.080764771,0.306045532
9596.224083,0.566314697,0.94543457,0.258163452
9605.906083,0.534744263,0.806152344,0.214675903
9615.566083,0.526901245,0.712753296,0.171356201
9625.256083,0.547973633,0.662506104,0.124633789
9634.958083,0.577423096,0.641525269,0.096099854
9644.615083,0.596054077,0.620819092,0.066726685
9654.325083,0.603485107,0.587310791,0.037796021
9664.009083,0.592071533,0.55140686,0.02520752
9673.674083,0.584197998,0.520874023,0.009017944
9683.377083,0.58833313,0.502853394,-0.010635376
9693.061083,0.59703064,0.476867676,-0.036529541
9702.745083,0.601425171,0.453323364,-0.052642822
9712.429083,0.619766235,0.447784424,-0.077331543
9722.088083,0.651443481,0.466949463,-0.150344849
9731.795083,0.709274292,0.506912231,-0.493774414
9741.478083,0.790908813,0.517868042,-1.168075562
9751.156083,0.755615234,0.50038147,-0.792358398
9760.844083,0.622070313,0.50328064,-0.275985718
9770.528083,0.538955688,0.535369873,-0.134765625
9780.208083,0.559799194,0.59487915,-0.132858276
9789.894083,0.61618042,0.669311523,-0.132217407
9799.572083,0.657928467,0.716262817,-0.102813721
9809.230083,0.674057007,0.709640503,-0.070053101
9818.942083,0.67829895,0.658111572,-0.032897949
9828.622083,0.677459717,0.604705811,-0.009307861
9838.295083,0.675415039,0.563247681,-0.006057739
9847.984083,0.682540894,0.553848267,-0.008880615
9857.666083,0.709320068,0.538894653,-0.050689697
9867.336083,0.763137817,0.45085144,-0.336959839
9877.011083,0.865997314,0.330718994,-0.804290771
9886.684083,0.909561157,0.392990112,-0.707397461
9896.370083,0.844085693,0.597473145,-0.288375854
9906.067083,0.731338501,0.763092041,-0.117034912
9915.737083,0.684326172,0.823608398,-0.097732544
9925.421083,0.682357788,0.862762451,-0.10269165
9935.104083,0.709899902,0.924118042,-0.181381226
9944.789083,0.76701355,1.012481689,-0.347106934
9954.484083,0.874542236,1.14201355,-0.66116333
9964.167083,1.003967285,1.14289856,-0.796096802
9973.838083,1.109085083,0.955245972,-0.726623535
9983.530083,1.112609863,0.752426147,-0.544830322
9993.213083,1.13911438,0.674041748,-0.312210083
10002.89008,1.172912598,0.760543823,-0.116073608
10012.58208,1.1537323,0.850280762,-0.021759033
10022.26608,1.075973511,0.90788269,0.104370117
10031.95008,0.951889038,0.952194214,0.203567505
10041.63408,0.835693359,0.940185547,0.263290405
10051.29608,0.75630188,0.890914917,0.292892456
10061.00108,0.689376831,0.848999023,0.315231323
10070.68508,0.650512695,0.818649292,0.336227417
10080.35308,0.627441406,0.778747559,0.3228302
10090.05208,0.618438721,0.752502441,0.3331604
10099.73508,0.635025024,0.733016968,0.321838379
10109.40108,0.660507202,0.723434448,0.28163147
10119.10408,0.711868286,0.741912842,0.278686523
10128.78708,0.770294189,0.766174316,0.281448364
10138.46108,0.819198608,0.790985107,0.287490845
10148.15308,0.841247559,0.810745239,0.298950195
10157.83308,0.827835083,0.820220947,0.295013428
10167.51908,0.780136108,0.794265747,0.264831543
10177.20308,0.723373413,0.75378418,0.213653564
10186.88708,0.67489624,0.70425415,0.169418335
10196.57108,0.631439209,0.654541016,0.137908936
10206.23408,0.593429565,0.609603882,0.107498169
10215.93908,0.56022644,0.57975769,0.07723999
10225.62308,0.534866333,0.559020996,0.055725098
10235.30808,0.521087646,0.539367676,0.02986145
10244.97108,0.520645142,0.513839722,0.000335693
10254.67708,0.521499634,0.498138428,-0.024261475
10264.36208,0.53074646,0.496353149,-0.029693604
10274.02008,0.538833618,0.504943848,-0.037963867
10283.71808,0.557159424,0.517089844,-0.036331177
10293.41408,0.573104858,0.532791138,-0.039825439
10303.09008,0.577819824,0.552108765,-0.0496521
10312.78108,0.579421997,0.568847656,-0.0625
10322.46508,0.582504272,0.579803467,-0.074249268
10332.14808,0.581207275,0.593673706,-0.090774536
10341.82308,0.586654663,0.603408813,-0.111984253
10351.51408,0.599411011,0.612838745,-0.132080078
10361.17108,0.614242554,0.617034912,-0.156478882
10370.88408,0.640060425,0.614852905,-0.177566528
10380.55008,0.680450439,0.60508728,-0.197692871
10390.24608,0.735778809,0.593978882,-0.199203491
10399.91408,0.788223267,0.597885132,-0.190322876
10409.60308,0.830307007,0.604934692,-0.177078247
10419.23608,0.852432251,0.609558105,-0.160461426
10428.90408,0.862731934,0.616500854,-0.157836914
10438.57808,0.868026733,0.625396729,-0.151947021
10448.28408,0.865081787,0.635025024,-0.151321411
10457.94108,0.871948242,0.656768799,-0.15171814
10467.63108,0.884368896,0.663635254,-0.139694214
10477.32908,0.910018921,0.665496826,-0.124176025
10487.00908,0.945251465,0.659576416,-0.100738525
10496.68308,0.978942871,0.653747559,-0.079742432
10506.36508,1.008514404,0.652618408,-0.069152832
10516.04808,1.048049927,0.641693115,-0.061447144
10525.73208,1.093185425,0.632125854,-0.071334839
10535.41008,1.13659668,0.625427246,-0.088897705
10545.11608,1.179870605,0.648925781,-0.124572754
10554.80008,1.216461182,0.722351074,-0.157043457
10564.48308,1.257965088,0.829208374,-0.167984009
10574.16708,1.276412964,0.926452637,-0.152893066
10583.85108,1.245071411,0.987640381,-0.108123779
10593.53408,1.177444458,1.004379272,-0.057556152
10603.19008,1.085662842,0.962097168,4.58E-05
10612.90208,0.955368042,0.882522583,0.049880981
10622.58608,0.810760498,0.789291382,0.085800171
10632.24308,0.680160522,0.701019287,0.111877441
10641.95508,0.574523926,0.636154175,0.146713257
10651.63908,0.498092651,0.602859497,0.192184448
10661.29608,0.446899414,0.616073608,0.234573364
10671.00608,0.416870117,0.668014526,0.274749756
10680.68908,0.415878296,0.763397217,0.306747437
10690.35908,0.455551147,0.88621521,0.336791992
10700.05608,0.508621216,0.988204956,0.343780518
10709.73908,0.555725098,1.06703186,0.335983276
10719.42108,0.56880188,1.10635376,0.323699951
10729.10508,0.544692993,1.100738525,0.322784424
10738.76508,0.485488892,1.049743652,0.336502075
10748.47108,0.43548584,0.945556641,0.321044922
10758.15508,0.404663086,0.81968689,0.283874512
10767.83208,0.381896973,0.7240448,0.244522095
10777.52008,0.377731323,0.669326782,0.219192505
10787.20208,0.393264771,0.656265259,0.198638916
10796.88508,0.415817261,0.631256104,0.166976929
10806.56808,0.441741943,0.599029541,0.121749878
10816.25308,0.471557617,0.591262817,0.08883667
10825.92508,0.500762939,0.605911255,0.063598633
10835.61808,0.512084961,0.60446167,0.041793823
10845.30108,0.523010254,0.592086792,0.024078369
10854.98408,0.534835815,0.580062866,0.010437012
10864.66808,0.546295166,0.571166992,-0.005599976
10874.33808,0.56149292,0.56918335,-0.021942139
10884.03308,0.592987061,0.578399658,-0.041671753
10893.71708,0.631271362,0.59072876,-0.05909729
10903.38408,0.664459229,0.60760498,-0.067596436
10913.08608,0.687133789,0.61869812,-0.070068359
10922.76908,0.691635132,0.622833252,-0.080032349
10932.44408,0.698623657,0.620742798,-0.107772827
10942.10808,0.716629028,0.611251831,-0.164093018
10951.79408,0.745651245,0.594161987,-0.240707397
10961.49508,0.818466187,0.546951294,-0.583312988
10971.16708,0.910614014,0.44418335,-1.044387817
10980.85108,0.882247925,0.380661011,-0.872436523
10990.53908,0.765304565,0.407394409,-0.472015381
11000.23608,0.686294556,0.470581055,-0.266723633
11009.91908,0.674468994,0.532852173,-0.170150757
11019.60408,0.688842773,0.575592041,-0.116989136
11029.28708,0.701034546,0.611373901,-0.09072876
11038.97308,0.712158203,0.622619629,-0.079727173
11048.65708,0.723312378,0.622543335,-0.08366394
11058.34108,0.741348267,0.615921021,-0.083435059
11068.00408,0.761611938,0.647842407,-0.087539673
11077.71008,0.784881592,0.701171875,-0.085128784
11087.39208,0.796325684,0.796783447,-0.075408936
11097.05608,0.820236206,0.8855896,-0.076065063
11106.76008,0.872940063,0.964141846,-0.135360718
11116.44408,0.979263306,0.993606567,-0.331665039
11126.12008,1.141708374,0.885528564,-0.655715942
11135.81008,1.247589111,0.714385986,-0.856292725
11145.49308,1.248245239,0.649108887,-0.733581543
11155.17108,1.194290161,0.716064453,-0.468704224
11164.86208,1.162582397,0.829360962,-0.235778809
11174.54508,1.12840271,0.933364868,-0.096511841
11184.22808,1.085296631,1.003982544,-0.0521698
11193.90708,1.020614624,1.017623901,-0.021911621
11203.59608,0.941711426,0.994049072,0.041992188
11213.27808,0.859710693,0.961837769,0.091766357
11222.96108,0.761230469,0.914077759,0.134994507
11232.63908,0.654067993,0.842819214,0.169372559
11242.32708,0.553878784,0.75819397,0.188476563
11252.01008,0.477554321,0.685668945,0.198410034
11261.66808,0.438323975,0.627075195,0.212203979
11271.37508,0.430130005,0.594741821,0.226150513
11281.05708,0.458679199,0.607849121,0.238449097
11290.73008,0.532150269,0.669311523,0.23500061
11300.42108,0.639144897,0.760772705,0.241241455
11310.10308,0.74432373,0.867355347,0.256668091
11319.78508,0.840240479,0.945495605,0.272705078
11329.46808,0.898651123,0.976211548,0.285140991
11339.14908,0.901672363,0.938064575,0.284179688
11348.82208,0.859359741,0.85949707,0.269378662
11358.51508,0.800231934,0.780349731,0.238204956
11368.14221,0.738449097,0.721969604,0.195678711
11377.82621,0.691543579,0.670776367,0.163467407
11387.51021,0.660247803,0.623214722,0.138290405
11397.17221,0.633071899,0.583786011,0.116958618
11406.80021,0.593551636,0.557388306,0.108963013
11416.49221,0.557327271,0.540878296,0.090957642
11426.14721,0.523925781,0.519515991,0.080886841
11435.85721,0.496383667,0.493408203,0.073791504
11445.53221,0.477233887,0.47303772,0.077713013
11455.21021,0.467453003,0.459289551,0.072219849
11464.90621,0.470230103,0.457061768,0.07522583
11474.58921,0.495925903,0.463088989,0.078338623
11484.25321,0.515380859,0.484786987,0.063400269
11493.92721,0.541030884,0.516067505,0.048843384
11503.63121,0.570251465,0.550949097,0.029968262
11513.29621,0.602355957,0.578338623,0.009292603
11522.97521,0.627578735,0.595748901,-0.005218506
11532.67921,0.655776978,0.606399536,-0.020248413
11542.36221,0.682418823,0.615158081,-0.034881592
11552.04521,0.716751099,0.619720459,-0.047515869
11561.72321,0.747787476,0.622634888,-0.065811157
11571.39621,0.779724121,0.626831055,-0.073501587
11581.07921,0.815155029,0.630752563,-0.094818115
11590.75921,0.849121094,0.635177612,-0.117614746
11600.43321,0.878234863,0.640426636,-0.137664795
11610.14321,0.897232056,0.644943237,-0.157043457
11619.80921,0.913696289,0.644165039,-0.16645813
11629.50721,0.911331177,0.627258301,-0.172790527
11639.18921,0.892578125,0.610137939,-0.187011719
11648.84421,0.90032959,0.583679199,-0.201629639
11658.55321,0.923583984,0.567962646,-0.214096069
11668.23621,0.921768188,0.554885864,-0.216873169
11677.90521,0.890808105,0.527053833,-0.184310913
11687.60121,0.887664795,0.499053955,-0.14932251
11697.28321,0.93572998,0.48147583,-0.105651855
11706.96721,1.033828735,0.481948853,-0.078643799
11716.64821,1.131256104,0.507080078,-0.09274292
11726.32621,1.160095215,0.566329956,-0.158126831
11736.01321,1.143692017,0.652557373,-0.239120483
11745.69321,1.150039673,0.730697632,-0.357070923
11755.37121,1.168121338,0.81187439,-0.39553833
11765.05621,1.223144531,0.88710022,-0.281311035
11774.74021,1.257644653,0.950546265,-0.175567627
11784.40521,1.21774292,0.980163574,-0.124954224
11794.07921,1.134490967,0.963180542,-0.061218262
11803.77121,1.007949829,0.896697998,0.010559082
11813.47021,0.846450806,0.802993774,0.071411133
11823.15321,0.685958862,0.707046509,0.108764648
11832.83521,0.555801392,0.623703003,0.132217407
11842.51121,0.462463379,0.563049316,0.16192627
11852.20221,0.407623291,0.542526245,0.203704834
11861.88421,0.38772583,0.549377441,0.255783081
11871.56721,0.408828735,0.594146729,0.317398071
11881.25121,0.464813232,0.696456909,0.385147095
11890.92421,0.565246582,0.847732544,0.434555054
11900.61721,0.658920288,0.97555542,0.430114746
11910.29921,0.722503662,1.068786621,0.403610229
11919.95221,0.753875732,1.123260498,0.383361816
11929.65721,0.726623535,1.094619751,0.355377197
11939.34921,0.661483765,0.988876343,0.333358765
11949.00521,0.590957642,0.841690063,0.294708252
11958.71621,0.541046143,0.726669312,0.252319336
11968.40121,0.513900757,0.658035278,0.225189209
11978.07521,0.499328613,0.597854614,0.187713623
11987.76721,0.497924805,0.549041748,0.155090332
11997.45021,0.498901367,0.515258789,0.122238159
12007.10421,0.515304565,0.496154785,0.090103149
12016.81621,0.533279419,0.496017456,0.065322876
12026.50021,0.553527832,0.50869751,0.051986694
12036.18321,0.591140747,0.534194946,0.046081543
12045.86621,0.62272644,0.558746338,0.021789551
12055.54221,0.651031494,0.566146851,0.009506226
12065.23021,0.660751343,0.564987183,0.003051758
12074.91421,0.662353516,0.556716919,-0.0105896
12084.58221,0.664474487,0.554489136,-0.022781372
12094.27721,0.660491943,0.562255859,-0.046356201
12103.96121,0.663635254,0.580612183,-0.075866699
12113.64221,0.669677734,0.591339111,-0.145843506
12123.31021,0.675582886,0.605499268,-0.248748779
12132.99521,0.700775146,0.583755493,-0.579971313
12142.66421,0.758331299,0.483398438,-0.986923218
12152.35321,0.776367188,0.398880005,-0.817901611
12162.04821,0.721160889,0.434555054,-0.462112427
12171.73621,0.702026367,0.550933838,-0.243408203
12181.42021,0.71762085,0.656326294,-0.130355835
12191.09921,0.726593018,0.722137451,-0.086135864
12200.78621,0.715606689,0.723587036,-0.081970215
12210.44921,0.703781128,0.686096191,-0.091598511
12220.15321,0.699890137,0.646194458,-0.108657837
12229.83821,0.715240479,0.61932373,-0.085784912
12239.52021,0.743255615,0.625457764,-0.065353394
12249.17621,0.78666687,0.675369263,-0.039398193
12258.88121,0.826416016,0.795425415,-0.036575317
12268.56921,0.871658325,0.873428345,-0.08656311
12278.24421,0.92779541,0.918151855,-0.212280273
12287.93521,1.014450073,0.92590332,-0.423324585
12297.62021,1.145126343,0.836380005,-0.656173706
12307.29621,1.230545044,0.678100586,-0.802368164
12316.98621,1.231765747,0.59487915,-0.71395874
12326.67021,1.218292236,0.654541016,-0.435546875
12336.33421,1.22668457,0.803619385,-0.170196533
12346.03721,1.225296021,0.942199707,-0.030975342
12355.72121,1.193237305,0.979721069,0.031799316
12365.40321,1.086196899,0.942092896,0.069885254
12375.08621,0.959030151,0.874893188,0.103225708
12384.76921,0.851257324,0.817733765,0.131546021
12394.45421,0.744720459,0.777603149,0.145568848
12404.13921,0.630111694,0.732131958,0.156723022
12413.81121,0.534561157,0.683792114,0.15802002
12423.50621,0.465332031,0.646850586,0.169052124
12433.19121,0.431915283,0.616912842,0.185684204
12442.86421,0.427490234,0.601867676,0.203155518
12452.55721,0.448638916,0.60144043,0.216888428
12462.23421,0.499282837,0.631408691,0.226043701
12471.91821,0.573059082,0.684890747,0.231307983
12481.60921,0.649612427,0.750106812,0.24786377
12491.27121,0.717712402,0.816055298,0.27394104
12500.97521,0.768127441,0.873626709,0.293029785
12510.65921,0.793212891,0.895431519,0.284790039
12520.32421,0.80305481,0.901519775,0.269821167
12530.02721,0.78036499,0.88293457,0.239746094
12539.71021,0.740890503,0.8540802,0.21144104
12549.37721,0.706832886,0.80291748,0.192016602
12559.05121,0.667663574,0.745788574,0.165145874
12568.75821,0.634674072,0.700256348,0.153137207
12578.43021,0.597808838,0.657928467,0.156234741
12588.09721,0.569503784,0.618911743,0.155044556
12597.79621,0.541351318,0.58795166,0.144180298
12607.48321,0.535049438,0.558151245,0.113006592
12617.14921,0.54675293,0.524291992,0.094863892
12626.83621,0.560195923,0.504013062,0.071868896
12636.51921,0.585586548,0.500900269,0.065170288
12646.20421,0.610794067,0.491958618,0.061828613
12655.88821,0.609603882,0.487197876,0.040222168
12665.58121,0.623321533,0.475311279,0.021972656
12675.27021,0.645187378,0.473205566,-0.003143311
12684.95321,0.688140869,0.487319946,-0.02935791
12694.63521,0.74307251,0.505233765,-0.068908691
12704.31821,0.819107056,0.490921021,-0.135131836
12713.98921,0.844848633,0.480148315,-0.151763916
12723.68821,0.844711304,0.476593018,-0.134597778
12733.37021,0.819793701,0.509963989,-0.115921021
12743.04221,0.802764893,0.573944092,-0.149887085
12752.73821,0.776977539,0.624328613,-0.161346436
12762.42121,0.764846802,0.681991577,-0.155563354
12772.08821,0.760391235,0.721542358,-0.147705078
12781.78421,0.763168335,0.731124878,-0.151611328
12791.46521,0.744522095,0.733032227,-0.143783569
12801.14721,0.727600098,0.723419189,-0.130935669
12810.82921,0.73500061,0.694946289,-0.121566772
12820.49021,0.752166748,0.67036438,-0.112609863
12830.19221,0.781677246,0.65612793,-0.108474731
12839.87621,0.827590942,0.637298584,-0.105331421
12849.54821,0.872467041,0.619766235,-0.092987061
12859.24521,0.91859436,0.613754272,-0.093185425
12868.92521,0.968338013,0.618057251,-0.090423584
12878.59821,1.021118164,0.621917725,-0.09173584
12888.29521,1.07019043,0.616699219,-0.113250732
12897.98021,1.096557617,0.593200684,-0.15612793
12907.65621,1.105819702,0.587234497,-0.216430664
12917.34621,1.136535645,0.60585022,-0.273986816
12927.03021,1.191558838,0.650497437,-0.29473877
12936.70721,1.228530884,0.708587646,-0.29083252
12946.39721,1.181838989,0.75151062,-0.239547729
12956.08121,1.062789917,0.763977051,-0.133880615
12965.76621,0.940917969,0.760147095,-0.029754639
12975.45021,0.828552246,0.741500854,0.060058594
12985.13321,0.716369629,0.714675903,0.126495361
12994.81221,0.626922607,0.678192139,0.163192749
13004.50121,0.561828613,0.645690918,0.184524536
13014.16021,0.526016235,0.642425537,0.221450806
13023.86721,0.535690308,0.688949585,0.275360107
13033.55021,0.576080322,0.791275024,0.327102661
13043.21221,0.647384644,0.91835022,0.380599976
13052.91421,0.730255127,1.073532104,0.416641235
13062.59721,0.800262451,1.219207764,0.427764893
13072.26521,0.812988281,1.31703186,0.430114746
13081.96421,0.768417358,1.31338501,0.39239502
13091.64421,0.680480957,1.195617676,0.339141846
13101.33121,0.582458496,1.003585815,0.291809082
13111.01521,0.500595093,0.820999146,0.253890991
13120.69821,0.443191528,0.701812744,0.231765747
13130.35921,0.420532227,0.628646851,0.208999634
13140.06321,0.415618896,0.557617188,0.168838501
13149.75121,0.425491333,0.521179199,0.136062622
13159.41421,0.452270508,0.514526367,0.117034912
13169.09921,0.500198364,0.519287109,0.085586548
13178.78221,0.540283203,0.531723022,0.075561523
13188.46521,0.57119751,0.539169312,0.069168091
13198.15021,0.594421387,0.540710449,0.054168701
13207.82121,0.609191895,0.543014526,0.036254883
13217.53121,0.60748291,0.520294189,0.019271851
13227.21221,0.605194092,0.501052856,-0.001556396
13236.88621,0.603759766,0.492599487,-0.022583008
13246.57921,0.618850708,0.498199463,-0.036972046
13256.26121,0.650024414,0.511245728,-0.055511475
13265.94321,0.687194824,0.5340271,-0.085769653
13275.60421,0.723968506,0.567825317,-0.173538208
13285.30921,0.771453857,0.591293335,-0.427597046
13294.99221,0.851882935,0.554641724,-0.983230591
13304.67521,0.873077393,0.464584351,-0.963973999
13314.33121,0.770324707,0.441085815,-0.499572754
13324.03621,0.665161133,0.479797363,-0.222457886
13333.69121,0.631103516,0.535751343,-0.11239624
13343.38321,0.649810791,0.5753479,-0.069091797
13353.09121,0.683074951,0.603485107,-0.060043335
13362.77421,0.710250854,0.615661621,-0.070465088
13372.43221,0.733657837,0.611343384,-0.121261597
13382.14221,0.764099121,0.581878662,-0.22505188
13391.82521,0.799545288,0.545547485,-0.311386108
13401.48921,0.825881958,0.548690796,-0.28225708
13411.17821,0.824478149,0.596282959,-0.20690918
13420.87821,0.797531128,0.718902588,-0.167205811
13430.56221,0.800598145,0.849014282,-0.152694702
13440.24621,0.850402832,0.945114136,-0.161071777
13449.93021,0.902542114,0.980194092,-0.222259521
13459.61421,0.984146118,0.954467773,-0.35786438
13469.29821,1.074050903,0.862136841,-0.500808716
13478.97421,1.105728149,0.753540039,-0.578781128
13488.66921,1.092102051,0.725692749,-0.54901123
13498.35421,1.037597656,0.81867981,-0.399215698
13508.02621,0.998779297,0.897872925,-0.255935669
13517.72121,0.968902588,0.946044922,-0.12008667
13527.40421,0.944869995,0.989501953,0.012786865
13537.06221,0.910400391,1.032302856,0.115356445
13546.77421,0.856231689,1.051574707,0.174972534
13556.45821,0.786514282,1.033950806,0.202911377
13566.13521,0.714569092,0.974304199,0.23664856
13575.82721,0.645889282,0.910171509,0.228652954
13585.51121,0.581985474,0.854705811,0.209060669
13595.18421,0.537826538,0.776794434,0.214584351
13604.88021,0.520568848,0.679153442,0.225326538
13614.56421,0.523895264,0.608154297,0.202270508
13624.23121,0.561935425,0.580780029,0.202056885
13633.91121,0.634780884,0.586700439,0.215896606
13643.59221,0.728164673,0.622161865,0.251571655
13653.28321,0.838531494,0.675094604,0.297790527
13662.98121,0.928390503,0.71081543,0.336364746
13672.66821,0.969512939,0.737762451,0.345169067
13682.33521,0.960449219,0.734329224,0.323928833
13692.02121,0.890869141,0.697174072,0.268112183
13701.70221,0.818450928,0.648590088,0.200683594
13711.38721,0.764663696,0.595458984,0.147109985
13721.08921,0.716766357,0.547866821,0.121917725
13730.74921,0.681991577,0.512634277,0.111053467
13740.45621,0.648101807,0.489440918,0.102081299
13750.12321,0.609054565,0.487670898,0.104202271
13759.82221,0.571609497,0.510421753,0.10697937
13769.50521,0.546188354,0.541091919,0.110778809
13779.17521,0.52784729,0.562042236,0.113510132
13788.87221,0.522323608,0.570968628,0.105361938
13798.55521,0.515655518,0.568130493,0.078872681
13808.22721,0.511199951,0.567520142,0.05682373
13817.92521,0.515197754,0.57635498,0.037521362
13827.60821,0.530273438,0.576858521,0.019607544
13837.28821,0.546417236,0.587509155,0.00201416
13846.97421,0.556137085,0.605300903,-0.009078979
13856.65921,0.567047119,0.625213623,-0.020858765
13866.33421,0.588104248,0.641998291,-0.034118652
13876.02621,0.610305786,0.651184082,-0.040847778
13885.71121,0.641494751,0.663009644,-0.051727295
13895.39521,0.671508789,0.673202515,-0.059707642
13905.07721,0.702941895,0.675216675,-0.069015503
13914.76121,0.738845825,0.669174194,-0.074417114
13924.44421,0.764892578,0.659500122,-0.082641602
13934.11221,0.785491943,0.639892578,-0.093811035
13943.78621,0.807006836,0.613845825,-0.106643677
13953.49821,0.81968689,0.59173584,-0.132064819
13963.18221,0.828948975,0.588439941,-0.171783447
13972.85821,0.835235596,0.60067749,-0.217803955
13982.55021,0.84954834,0.628189087,-0.266464233
13992.23421,0.873001099,0.648086548,-0.317810059
14001.90821,0.910614014,0.634155273,-0.413909912
14011.60021,0.976654053,0.594238281,-0.463867188
14021.28521,1.052001953,0.613693237,-0.307144165
14030.96021,1.110916138,0.643310547,-0.184738159
14040.65121,1.152175903,0.635757446,-0.141342163
14050.33421,1.182937622,0.610275269,-0.125320435
14059.99821,1.179718018,0.577636719,-0.116470337
14069.70121,1.19102478,0.582000732,-0.117507935
14079.37621,1.210983276,0.62638855,-0.139968872
14089.07021,1.220718384,0.720031738,-0.15914917
14098.75321,1.236450195,0.826812744,-0.150772095
14108.42721,1.213226318,0.906890869,-0.10824585
14118.12121,1.122680664,0.925338745,-0.049850464
14127.77421,0.996231079,0.891921997,0.038986206
14137.48121,0.872711182,0.838485718,0.111633301
14147.16821,0.764953613,0.788635254,0.174118042
14156.84721,0.672180176,0.743103027,0.219558716
14166.53221,0.597900391,0.71333313,0.270629883
14176.20921,0.545028687,0.719680786,0.339263916
14185.89521,0.520614624,0.74446106,0.417037964
14195.50921,0.510574341,0.802841187,0.482223511
14205.20421,0.520065308,0.890014648,0.505554199
14214.88821,0.542678833,0.980178833,0.503173828
14224.55821,0.545593262,1.045883179,0.504364014
14234.25621,0.534118652,1.095901489,0.516769409
14243.91021,0.506134033,1.106216431,0.497146606
14253.61721,0.476333618,1.056625366,0.440841675
14263.30121,0.445159912,0.941070557,0.37789917
14272.97521,0.427856445,0.800323486,0.31111145
14282.67421,0.42829895,0.711425781,0.264389038
14292.34221,0.440414429,0.661972046,0.243133545
14302.02621,0.472000122,0.634780884,0.218719482
14311.71121,0.509902954,0.629943848,0.18536377
14321.39521,0.551193237,0.625686646,0.145477295
14331.06921,0.574859619,0.616210938,0.097320557
14340.76121,0.583557129,0.584762573,0.062820435
14350.46121,0.574523926,0.556716919,0.054046631
14360.12121,0.5675354,0.520324707,0.028366089
14369.82521,0.553421021,0.490325928,-0.008346558
14379.50821,0.544494629,0.469192505,-0.030136108
14389.17521,0.552902222,0.462600708,-0.058364868
14398.87421,0.580154419,0.459396362,-0.097488403
14408.53721,0.617843628,0.478256226,-0.167633057
14418.24021,0.710983276,0.481796265,-0.483184814
14427.92321,0.89692688,0.399246216,-1.12147522
14437.58421,0.931167603,0.375167847,-0.814300537
14447.28921,0.780685425,0.453643799,-0.308135986
14456.97221,0.652786255,0.556564331,-0.15977478
14466.62721,0.610305786,0.641159058,-0.166946411
14476.33721,0.610015869,0.691757202,-0.185546875
14486.02121,0.621109009,0.683944702,-0.149642944
14495.68021,0.64225769,0.6459198,-0.078460693
14505.39121,0.665924072,0.610839844,-0.0365448
14515.07421,0.69833374,0.593154907,-0.037750244
14524.73221,0.740814209,0.564788818,-0.111907959
14534.44321,0.821899414,0.479049683,-0.381439209
14544.12521,0.928665161,0.387054443,-0.732955933
14553.80121,0.98538208,0.411193848,-0.755981445
14563.49321,0.93989563,0.547515869,-0.450790405
14573.17721,0.859039307,0.666595459,-0.17918396
14582.85921,0.822158813,0.731262207,-0.075698853
14592.54221,0.826278687,0.758651733,-0.070617676
14602.22521,0.844985962,0.814483643,-0.074111938
14611.90821,0.870315552,0.898025513,-0.134628296
14621.59321,0.892242432,0.923721313,-0.315856934
14631.27121,0.956848145,0.86491394,-0.575744629
14640.93721,1.011764526,0.763687134,-0.697998047
14650.64221,0.963607788,0.795394897,-0.481887817
14660.32321,0.907989502,0.924179077,-0.271606445
14670.00821,0.921737671,1.066146851,-0.156646729
14679.69021,0.944610596,1.142959595,-0.013137817
14689.37221,0.904556274,1.200363159,0.16027832
14699.05721,0.841644287,1.22102356,0.261520386
14708.73921,0.772598267,1.185180664,0.288040161
14718.40721,0.715560913,1.118240356,0.291381836
14728.10221,0.672317505,1.045501709,0.280212402
14737.78521,0.626754761,0.985778809,0.257492065
14747.45121,0.604171753,0.896835327,0.230026245
14757.15221,0.589599609,0.825317383,0.222763062
14766.82721,0.598999023,0.770462036,0.218139648
14776.51721,0.641952515,0.736862183,0.216644287
14786.19621,0.721176147,0.736999512,0.227050781
14795.88221,0.822036743,0.770385742,0.23727417
14805.56321,0.902481079,0.789108276,0.251708984
14815.23121,0.932312012,0.779129028,0.258056641
14824.90421,0.91255188,0.735229492,0.238693237
14834.60021,0.840194702,0.665679932,0.19203186
14844.28221,0.746078491,0.602203369,0.137863159
14853.97221,0.658843994,0.550476074,0.097640991
14863.66621,0.590591431,0.504486084,0.069610596
14873.34921,0.54246521,0.467468262,0.049850464
14883.02621,0.506027222,0.448257446,0.038146973
14892.71621,0.476547241,0.437225342,0.036422729
14902.39821,0.462722778,0.434753418,0.038223267
14912.08221,0.457138062,0.434143066,0.046875
14921.76521,0.466415405,0.440429688,0.05065918
14931.44121,0.486801147,0.454177856,0.054748535
14941.13121,0.513641357,0.476287842,0.05456543
14950.81421,0.534851074,0.497207642,0.047637939
14960.49321,0.564254761,0.520339966,0.041290283
14970.17321,0.595275879,0.542449951,0.032073975
14979.86021,0.62272644,0.559005737,0.023590088
14989.51621,0.644515991,0.577789307,0.011123657
14999.22221,0.65512085,0.59362793,0.000976563
15008.90521,0.667861938,0.607177734,-0.008789063
15018.57721,0.68031311,0.617248535,-0.025543213
15028.26821,0.699279785,0.631378174,-0.038314819
15037.94921,0.724121094,0.645782471,-0.054443359
15047.62121,0.750686646,0.659988403,-0.064987183
15057.25021,0.769683838,0.667694092,-0.072555542
15066.93321,0.787857056,0.662857056,-0.077804565
15076.60021,0.798522949,0.650680542,-0.08807373
15086.29721,0.79876709,0.633026123,-0.100753784
15095.97521,0.793304443,0.615997314,-0.114715576
15105.66321,0.787124634,0.617675781,-0.156402588
15115.34721,0.793273926,0.631759644,-0.203048706
15125.03121,0.812805176,0.65133667,-0.251571655
15134.71421,0.801101685,0.692855835,-0.434143066
15144.39921,0.748397827,0.738952637,-0.782730103
15154.08121,0.773986816,0.692047119,-0.544021606
15163.76421,0.914505005,0.636230469,-0.182617188
15173.44721,1.001800537,0.635559082,-0.094024658
15183.10321,1.046447754,0.61958313,-0.079299927
15192.81321,1.091842651,0.599914551,-0.069335938
15202.49721,1.174560547,0.605285645,-0.070632935
15212.15421,1.287811279,0.664901733,-0.075302124
15221.86021,1.391036987,0.754119873,-0.076797485
15231.54821,1.427032471,0.874359131,-0.075958252
15241.22821,1.392349243,0.980728149,-0.059417725
15250.92021,1.321807861,1.039169312,-0.008758545
15260.60421,1.205093384,1.020324707,0.053085327
15270.28821,1.039291382,0.927612305,0.107421875
15279.97121,0.863418579,0.797210693,0.150009155
15289.65421,0.705810547,0.68359375,0.169387817
15299.31421,0.585449219,0.617980957,0.18522644
15309.02121,0.505966187,0.603408813,0.200531006
15318.69421,0.460128784,0.640014648,0.215072632
15328.38621,0.442321777,0.72706604,0.242782593
15338.06821,0.453826904,0.840713501,0.281707764
15347.74521,0.472244263,0.970596313,0.317687988
15357.43321,0.487380981,1.098648071,0.351348877
15367.09321,0.508514404,1.185440063,0.37310791
15376.79721,0.513549805,1.193893433,0.367294312
15386.48221,0.491073608,1.130599976,0.33605957
15396.16521,0.460083008,1.033569336,0.290817261
15405.82021,0.433792114,0.912902832,0.247848511
15415.52321,0.405258179,0.808242798,0.221221924
15425.18221,0.383300781,0.736022949,0.189956665
15434.87321,0.374984741,0.685073853,0.16242981
15444.55721,0.381713867,0.653259277,0.128555298
15454.25221,0.403152466,0.633560181,0.094467163
15463.92421,0.428939819,0.618179321,0.06477356
15473.60621,0.44493103,0.596694946,0.033813477
15483.27521,0.45350647,0.571151733,0.003585815
15492.98621,0.468826294,0.549835205,-0.020584106
15502.65221,0.485061646,0.542434692,-0.045730591
15512.32621,0.514572144,0.540542603,-0.078491211
15522.03221,0.563217163,0.540557861,-0.128341675
15531.71521,0.601104736,0.533737183,-0.211669922
15541.38821,0.678497314,0.527389526,-0.377792358
15551.08121,0.782318115,0.50668335,-0.583557129
15560.76421,0.773086548,0.468475342,-0.444046021
15570.43921,0.679611206,0.466812134,-0.194992065
15580.13121,0.63482666,0.512756348,-0.105743408
15589.81321,0.640167236,0.57460022,-0.133453369
15599.49721,0.669586182,0.621643066,-0.204681396
15609.18021,0.690750122,0.63381958,-0.304855347
15618.85721,0.704925537,0.596160889,-0.357345581
15628.54121,0.715866089,0.533416748,-0.324890137
15638.23121,0.727386475,0.48588562,-0.275253296
15647.88621,0.748519897,0.449905396,-0.307815552
15657.59121,0.774047852,0.451522827,-0.40032959
15667.28021,0.796417236,0.461242676,-0.456558228
15676.93521,0.79359436,0.519302368,-0.370407104
15686.64421,0.762145996,0.58921814,-0.221282959
15696.32721,0.741043091,0.622283936,-0.097381592
15706.00321,0.750152588,0.65184021,-0.062988281
15715.69321,0.784591675,0.692825317,-0.046478271
15725.37721,0.818893433,0.75920105,-0.030380249
15735.06121,0.847579956,0.845504761,-0.06602478
15744.74521,0.904327393,0.941543579,-0.21156311
15754.42921,1.054611206,0.988113403,-0.62890625
15764.11321,1.166641235,0.872375488,-0.925247192
15773.79721,1.0730896,0.720733643,-0.768829346
15783.47621,0.926757813,0.717910767,-0.468566895
15793.16521,0.85899353,0.795501709,-0.24760437
15802.84921,0.89074707,0.909378052,-0.163894653
15812.52821,0.913330078,1.003250122,-0.0625
15822.21721,0.883392334,1.049926758,0.108154297
15831.89521,0.836532593,1.05947876,0.220733643
15841.58121,0.781448364,1.039642334,0.27557373
15851.26921,0.738693237,1.00894165,0.304489136
15860.95221,0.690826416,0.991378784,0.294387817
15870.62921,0.636856079,1.0050354,0.280776978
15880.32221,0.588668823,0.976577759,0.255722046
15890.00421,0.570205688,0.895385742,0.244277954
15899.68721,0.574417114,0.796890259,0.237609863
15909.36021,0.599578857,0.757919312,0.229217529
15919.05521,0.643661499,0.757888794,0.249465942
15928.71421,0.705322266,0.789703369,0.295379639
15938.41221,0.772186279,0.827575684,0.335586548
15948.10021,0.834686279,0.854034424,0.363098145
15957.77121,0.865066528,0.858306885,0.346481323
15967.45621,0.854766846,0.842041016,0.314788818
15977.14021,0.80770874,0.799911499,0.252456665
15986.83821,0.742340088,0.74609375,0.192092896
15996.52321,0.687393188,0.704818726,0.148895264
16006.20221,0.651550293,0.670898438,0.125823975
16015.88721,0.621490479,0.643005371,0.109680176
16025.56921,0.588729858,0.619110107,0.095245361
16035.24621,0.553848267,0.588623047,0.076843262
16044.93421,0.527755737,0.555969238,0.051895142
16054.61721,0.513000488,0.51940918,0.025039673
16064.29921,0.517578125,0.496047974,0.007705688
16073.98221,0.526290894,0.492233276,-0.000137329
16083.66421,0.538925171,0.492935181,-0.015289307
16093.34621,0.548828125,0.50994873,-0.022415161
16103.03021,0.558120728,0.523391724,-0.034042358
16112.69421,0.573471069,0.539886475,-0.046447754
16122.39521,0.585540771,0.548675537,-0.063110352
16132.07821,0.596130371,0.559188843,-0.077758789
16141.75021,0.607284546,0.571960449,-0.10043335
16151.44521,0.625106812,0.585601807,-0.125518799
16161.12721,0.640548706,0.598068237,-0.157501221
16170.80121,0.66545105,0.608215332,-0.183105469
16180.49421,0.703857422,0.615722656,-0.197250366
16190.15221,0.755477905,0.624694824,-0.206115723
16199.86121,0.814941406,0.630065918,-0.204864502
16209.54421,0.875228882,0.625610352,-0.199890137
16219.22821,0.900405884,0.630905151,-0.200576782
16228.91121,0.895629883,0.626739502,-0.207702637
16238.59321,0.872772217,0.617584229,-0.222061157
16248.25821,0.838516235,0.610717773,-0.235244751
16257.95921,0.799713135,0.621612549,-0.244186401
16267.64221,0.778244019,0.629486084,-0.237838745
16277.31121,0.79335022,0.634567261,-0.202713013
16287.00921,0.823135376,0.635009766,-0.15927124
16296.69221,0.856140137,0.625823975,-0.101394653
16306.35021,0.875213623,0.587173462,-0.058319092
16316.03721,0.892456055,0.542388916,-0.005249023
16325.74321,0.918563843,0.510162354,0.03843689
16335.41921,0.96913147,0.494842529,0.051254272
16345.10921,1.028152466,0.501876831,0.028869629
16354.79321,1.066131592,0.539489746,-0.037734985
16364.38083,1.061187744,0.628067017,-0.112808228
16374.38083,1.089584351,0.724014282,-0.161254883
16384.02483,1.133773804,0.828659058,-0.16835022
16393.70683,1.155990601,0.907699585,-0.125030518
16403.38283,1.100708008,0.929382324,-0.042755127
16413.07483,0.999526978,0.888183594,0.048141479
16422.75183,0.886398315,0.832107544,0.111801147
16432.43983,0.767730713,0.777603149,0.155303955
16442.12383,0.665771484,0.727157593,0.186447144
16451.80583,0.584655762,0.686676025,0.214920044
16461.48783,0.531692505,0.674240112,0.252090454
16471.17183,0.509033203,0.683181763,0.292114258
16480.82783,0.51701355,0.728240967,0.326660156
16490.53783,0.556854248,0.822174072,0.351638794
16500.20683,0.623199463,0.949401855,0.368804932
16509.90083,0.696853638,1.087738037,0.383804321
16519.58483,0.739852905,1.20904541,0.407348633
16529.24483,0.749237061,1.28024292,0.405654907
16538.92183,0.736358643,1.258529663,0.36366272
16548.60783,0.699935913,1.139129639,0.297149658
16558.29683,0.645355225,0.981338501,0.246231079
16567.98083,0.597351074,0.841766357,0.204055786
16577.66583,0.573730469,0.748153687,0.167358398
16587.34883,0.56439209,0.692199707,0.134475708
16597.03283,0.564712524,0.66305542,0.108688354
16606.73183,0.564117432,0.642410278,0.086746216
16616.41583,0.568206787,0.61567688,0.057647705
16626.09083,0.568069458,0.58430481,0.041625977
16635.78083,0.571777344,0.549972534,0.034515381
16645.46183,0.559616089,0.518447876,0.014648438
16655.14183,0.559020996,0.493530273,-0.016677856
16664.82383,0.577606201,0.482192993,-0.050323486
16674.49283,0.619491577,0.486831665,-0.090667725
16684.18883,0.666473389,0.501861572,-0.208526611
16693.87083,0.723587036,0.519515991,-0.785263062
16703.54283,0.770111084,0.484024048,-1.010940552
16713.23883,0.702301025,0.474777222,-0.379867554
16722.92083,0.594696045,0.49395752,-0.065093994
16732.58983,0.577484131,0.544891357,0.00112915
16742.28583,0.605499268,0.600494385,0.003158569
16751.95783,0.640304565,0.631317139,3.05E-05
16761.63183,0.666549683,0.628753662,-0.003372192
16771.30383,0.688430786,0.598480225,-0.006027222
16780.99883,0.703643799,0.556793213,-0.028121948
16790.69483,0.728225708,0.497039795,-0.114807129
16800.37883,0.78817749,0.404937744,-0.404983521
16810.05083,0.86819458,0.312484741,-0.724807739
16819.74383,0.898208618,0.322219849,-0.70741272
16829.39883,0.861862183,0.416381836,-0.441741943
16839.09683,0.794189453,0.528320313,-0.195037842
16848.79083,0.744766235,0.592407227,-0.06350708
16858.47383,0.727798462,0.624465942,-0.023727417
16868.14783,0.730056763,0.636047363,-0.031188965
16877.83983,0.753067017,0.666442871,-0.041000366
16887.52183,0.769790649,0.73526001,-0.021697998
16897.20583,0.768005371,0.816009521,-0.043731689
16906.88783,0.782501221,0.895980835,-0.184173584
16916.55783,0.830596924,0.979049683,-0.587600708
16926.25383,0.881912231,0.923721313,-0.942779541
16935.93583,0.89440918,0.710388184,-0.867614746
16945.60983,0.880447388,0.633804321,-0.559967041
16955.30083,0.896392822,0.75289917,-0.280914307
16964.98283,0.94581604,0.882843018,-0.093383789
16974.63883,1.000946045,0.983306885,0.046737671
16984.34783,1.002746582,1.055145264,0.170761108
16994.00483,0.934799194,1.087051392,0.24597168
17003.71383,0.841171265,1.036346436,0.275253296
17013.37683,0.755691528,0.968963623,0.282821655
17023.05983,0.698730469,0.909957886,0.292480469
17032.75883,0.651870728,0.879714966,0.304031372
17042.42383,0.619934082,0.854049683,0.331817627
17052.12383,0.609985352,0.805267334,0.349899292
17061.80683,0.617172241,0.744003296,0.346542358
17071.48883,0.65625,0.709732056,0.324066162
17081.16983,0.717773438,0.696624756,0.30607605
17090.85183,0.789398193,0.70451355,0.300308228
17100.53283,0.871307373,0.73991394,0.305175781
17110.18683,0.942398071,0.763183594,0.301803589
17119.89783,0.966903687,0.764297485,0.289199829
17129.58183,0.949310303,0.751586914,0.258468628
17139.24383,0.899169922,0.723495483,0.205749512
17148.94683,0.832489014,0.677536011,0.158309937
17158.62583,0.776397705,0.638824463,0.13508606
17168.29683,0.724533081,0.607696533,0.133514404
17177.99583,0.672836304,0.583053589,0.139907837
17187.67783,0.624633789,0.576034546,0.133651733
17197.35383,0.582443237,0.574188232,0.124725342
17207.04383,0.543395996,0.571304321,0.105026245
17216.72583,0.513549805,0.570037842,0.06451416
17226.40783,0.503921509,0.562057495,0.024841309
17236.07683,0.509658813,0.55456543,-0.00038147
17245.76683,0.536132813,0.54637146,-0.028610229
17255.45283,0.561859131,0.555908203,-0.052383423
17265.13483,0.586669922,0.581985474,-0.066940308
17274.80383,0.614089966,0.605194092,-0.072616577
17284.49883,0.640609741,0.621841431,-0.084686279
17294.18183,0.667953491,0.631652832,-0.097320557
17303.85583,0.683013916,0.627609253,-0.100784302
17313.54783,0.699035645,0.615081787,-0.101852417
17323.22883,0.717208862,0.596969604,-0.096679688
17332.90083,0.736694336,0.577270508,-0.091812134
17342.59383,0.75592041,0.559234619,-0.093200684
17352.27483,0.773681641,0.545166016,-0.101776123
17361.93083,0.78855896,0.546707153,-0.122955322
17371.63683,0.799835205,0.554962158,-0.148590088
17381.31983,0.797241211,0.571289063,-0.18208313
17390.98383,0.791152954,0.588897705,-0.202850342
17400.68483,0.781921387,0.605773926,-0.219711304
17410.36283,0.769577026,0.63269043,-0.22996521
17420.04783,0.768630981,0.654205322,-0.233612061
17429.73083,0.781906128,0.662582397,-0.223007202
17439.40683,0.817245483,0.656402588,-0.201675415
17449.08883,0.882415771,0.640869141,-0.165863037
17458.77783,0.965270996,0.62449646,-0.126174927
17468.43883,1.035995483,0.61769104,-0.090881348
17478.14183,1.09576416,0.620498657,-0.068405151
17487.81583,1.147644043,0.613327026,-0.062255859
17497.50183,1.192901611,0.618606567,-0.069061279
17507.16483,1.235519409,0.639724731,-0.094512939
17516.85483,1.269454956,0.686920166,-0.137557983
17526.53883,1.271392822,0.750671387,-0.177062988
17536.22183,1.254211426,0.78855896,-0.180130005
17545.90383,1.212417603,0.806060791,-0.14503479
17555.58583,1.125762939,0.79057312,-0.082702637
17565.27083,1.011962891,0.75352478,-0.018463135
17574.94383,0.878952026,0.701751709,0.051239014
17584.65183,0.751144409,0.64151001,0.102661133
17594.33383,0.63734436,0.599746704,0.14944458
17604.01583,0.552856445,0.578475952,0.183105469
17613.69783,0.499526978,0.582092285,0.215820313
17623.38183,0.472000122,0.63772583,0.257598877
17633.03983,0.480758667,0.725418091,0.315719604
17642.72283,0.525909424,0.849578857,0.385543823
17652.43283,0.574050903,0.985061646,0.440872192
17662.10983,0.623535156,1.109008789,0.461669922
17671.79983,0.649505615,1.192382813,0.44883728
17681.48283,0.632232666,1.24319458,0.422668457
17691.16083,0.584533691,1.215835571,0.383346558
17700.84883,0.530014038,1.102294922,0.336380005
17710.53083,0.483123779,0.93711853,0.298675537
17720.21383,0.437957764,0.795349121,0.282775879
17729.89583,0.417388916,0.695724487,0.258148193
17739.57883,0.40675354,0.619934082,0.233291626
17749.26083,0.414291382,0.576309204,0.20866394
17758.94483,0.439697266,0.567489624,0.191680908
17768.60783,0.473861694,0.576370239,0.161651611
17778.30983,0.519485474,0.59173584,0.142440796
17787.99283,0.559066772,0.59602356,0.105865479
17797.66083,0.593215942,0.593338013,0.070022583
17807.36183,0.614013672,0.593276978,0.053710938
17817.04483,0.644546509,0.593612671,0.030212402
17826.71783,0.659683228,0.593719482,-0.001144409
17836.40883,0.682128906,0.574020386,-0.040878296
17846.08483,0.720870972,0.56161499,-0.086410522
17855.77483,0.76524353,0.543746948,-0.191055298
17865.45683,0.841064453,0.485519409,-0.472930908
17875.12683,0.955963135,0.323822021,-1.160644531
17884.82083,0.955047607,0.22718811,-1.137329102
17894.49683,0.812042236,0.380554199,-0.538116455
17904.16783,0.734176636,0.554580688,-0.214828491
17913.86583,0.72883606,0.65411377,-0.102432251
17923.53183,0.739715576,0.679977417,-0.056121826
17933.21483,0.728942871,0.680465698,-0.012802124
17942.91083,0.695007324,0.666229248,0.01411438
17952.56783,0.662719727,0.631515503,0.026992798
17962.26583,0.645904541,0.589645386,0.040924072
17971.94683,0.651641846,0.547180176,0.034927368
17981.62183,0.675582886,0.493972778,-0.067932129
17991.29483,0.752593994,0.408203125,-0.365097046
18000.97383,0.829620361,0.398101807,-0.520019531
18010.66183,0.850769043,0.496017456,-0.38772583
18020.34383,0.814987183,0.639709473,-0.179702759
18030.02683,0.790710449,0.769607544,-0.071807861
18039.69583,0.807678223,0.845779419,-0.072906494
18049.40083,0.8565979,0.89680481,-0.137878418
18059.08883,0.920089722,0.903106689,-0.301696777
18068.74883,1.033798218,0.809921265,-0.532958984
18078.45383,1.126342773,0.701477051,-0.679656982
18088.13483,1.15423584,0.677856445,-0.591598511
18097.78883,1.159683228,0.782318115,-0.289077759
18107.49783,1.13230896,0.893203735,-0.045623779
18117.17883,1.089492798,0.924850464,0.04927063
18126.84683,1.034698486,0.938827515,0.085723877
18136.54283,0.975982666,0.958297729,0.13104248
18146.22283,0.897293091,0.95010376,0.162567139
18155.90383,0.795562744,0.898208618,0.189819336
18165.58483,0.69418335,0.846099854,0.199890137
18175.25483,0.631698608,0.792724609,0.213760376
18184.94683,0.595901489,0.765701294,0.222106934
18194.62683,0.578582764,0.756576538,0.237258911
18204.30783,0.578887939,0.75352478,0.246551514
18213.98883,0.596054077,0.7449646,0.247253418
18223.67083,0.641571045,0.731842041,0.234802246
18233.34883,0.694580078,0.747070313,0.230194092
18243.03683,0.755584717,0.780929565,0.232467651
18252.70883,0.818771362,0.815704346,0.237319946
18262.39283,0.875137329,0.835494995,0.261138916
18272.08083,0.907928467,0.82460022,0.278823853
18281.76183,0.88053894,0.781402588,0.268310547
18291.43583,0.815551758,0.729644775,0.219497681
18301.12483,0.751037598,0.685317993,0.164215088
18310.80983,0.699493408,0.638626099,0.119308472
18320.49183,0.655212402,0.598861694,0.09513855
18330.17383,0.614517212,0.568084717,0.086090088
18339.83683,0.575500488,0.556808472,0.081878662
18349.53583,0.552429199,0.549636841,0.067718506
18359.21483,0.534561157,0.547729492,0.063781738
18368.88983,0.531860352,0.542037964,0.054489136
18378.56983,0.541702271,0.532989502,0.044342041
18388.25783,0.558761597,0.524230957,0.032821655
18397.91083,0.578018188,0.517501831,0.024597168
18407.62083,0.599105835,0.527664185,0.023529053
18417.30283,0.621185303,0.53302002,0.014404297
18426.96383,0.629058838,0.527603149,-0.003692627
18436.66483,0.63458252,0.53427124,-0.016113281
18446.34583,0.643249512,0.543411255,-0.03036499
18456.01383,0.657455444,0.55531311,-0.043746948
18465.69083,0.670471191,0.569473267,-0.05696106
18475.36483,0.684921265,0.583023071,-0.063018799
18485.06883,0.705795288,0.590072632,-0.072860718
18494.74583,0.731109619,0.592910767,-0.081924438
18504.41283,0.750671387,0.59197998,-0.08480835
18514.09183,0.765731812,0.585449219,-0.079620361
18523.77383,0.778686523,0.57611084,-0.07611084
18533.47083,0.788391113,0.56300354,-0.073959351
18543.13483,0.799255371,0.559936523,-0.077667236
18552.83383,0.810119629,0.554748535,-0.089904785
18562.51383,0.816894531,0.563720703,-0.114929199
18572.19983,0.817565918,0.575958252,-0.143096924
18581.87883,0.815994263,0.589401245,-0.182174683
18591.55383,0.81867981,0.601211548,-0.20904541
18601.24483,0.830413818,0.604904175,-0.225906372
18610.92583,0.859283447,0.593902588,-0.238723755
18620.60783,0.914840698,0.556854248,-0.227386475
18630.29083,0.963058472,0.538696289,-0.188796997
18639.97183,1.005783081,0.524581909,-0.131271362
18649.65383,1.053543091,0.514038086,-0.086166382
18659.32383,1.096252441,0.497558594,-0.069259644
18669.01983,1.121582031,0.499343872,-0.084075928
18678.70083,1.133850098,0.53414917,-0.132965088
18688.38183,1.14364624,0.599960327,-0.182830811
18698.05183,1.14125061,0.696517944,-0.205459595
18707.73883,1.138519287,0.790557861,-0.187347412
18717.42683,1.109039307,0.860183716,-0.137252808
18727.10483,1.056289673,0.891357422,-0.067184448
18736.79283,0.986541748,0.873886108,0.018081665
18746.47483,0.906524658,0.827362061,0.096984863
18756.15183,0.822357178,0.776565552,0.158538818
18765.84183,0.748397827,0.739486694,0.204330444
18775.52383,0.680206299,0.715698242,0.257522583
18785.17683,0.618804932,0.704055786,0.307510376
18794.88883,0.576416016,0.709716797,0.352508545
18804.57083,0.554824829,0.751113892,0.40977478
18814.25283,0.55897522,0.821212769,0.436538696
18823.93383,0.591888428,0.89956665,0.440551758
18833.61083,0.625823975,0.988388062,0.427474976
18843.29783,0.644805908,1.063323975,0.413330078
18852.98183,0.643554688,1.104278564,0.405441284
18862.66383,0.618652344,1.083145142,0.39414978
18872.34583,0.582183838,1.006103516,0.371826172
18882.02783,0.544525146,0.90435791,0.32901001
18891.69983,0.520401001,0.791183472,0.266433716
18901.39383,0.505569458,0.705734253,0.214706421
18911.06883,0.498687744,0.664779663,0.171066284
18920.75083,0.512802124,0.648849487,0.130371094
18930.43883,0.535766602,0.65447998,0.09185791
18940.12283,0.563415527,0.652755737,0.047058105
18949.80483,0.581726074,0.643432617,0.019958496
18959.46583,0.591491699,0.621749878,0.006027222
18969.13883,0.604232788,0.592285156,-0.048370361
18978.84083,0.624328613,0.554122925,-0.145126343
18988.51783,0.727813721,0.460403442,-0.840118408
18998.19083,0.864578247,0.341140747,-1.385223389
19007.87683,0.751281738,0.372360229,-0.4712677
19017.57683,0.619491577,0.432022095,-0.035095215
19027.23283,0.609527588,0.510177612,0.002593994
19036.94283,0.629013062,0.610549927,-0.00189209
19046.62383,0.653381348,0.700515747,-0.008346558
19056.29683,0.674728394,0.745300293,-0.004959106
19065.98983,0.690841675,0.743743896,0.018554688
19075.67283,0.690338135,0.705947876,0.042480469
19085.35383,0.680862427,0.659408569,0.049240112
19095.03683,0.680709839,0.618438721,0.049697876
19104.71783,0.687973022,0.587005615,0.021118164
19114.39683,0.701553345,0.552902222,-0.035369873
19124.08483,0.721054077,0.526657104,-0.09387207
19133.75083,0.747360229,0.479415894,-0.266281128
19143.45083,0.798309326,0.375030518,-0.598464966
19153.13283,0.831314087,0.36265564,-0.700942993
19162.80383,0.825531006,0.465270996,-0.477706909
19172.49783,0.756317139,0.593322754,-0.198410034
19182.17883,0.688766479,0.651306152,-0.042297363
19191.84583,0.661026001,0.685760498,0.005020142
19201.54583,0.661346436,0.720657349,0.012283325
19211.22783,0.69644165,0.781158447,0.016723633
19220.89683,0.761291504,0.850357056,0.000396729
19230.56483,0.838516235,0.891662598,-0.057571411
19240.26983,0.940567017,0.845306396,-0.230895996
19249.95883,1.054534912,0.738388062,-0.568710327
19259.64183,1.127029419,0.648757935,-0.778091431
19269.30983,1.141235352,0.66545105,-0.624160767
19279.00683,1.121658325,0.820266724,-0.281707764
19288.68783,1.107147217,0.965255737,-0.073776245
19298.37083,1.109405518,1.056762695,-0.016342163
19308.05383,1.073471069,1.10067749,0.031692505
19317.73083,1.00038147,1.096603394,0.085998535
19327.41583,0.902069092,1.058380127,0.138305664
19337.10083,0.784622192,0.966369629,0.184585571
19346.78483,0.669006348,0.868591309,0.210571289
19356.45783,0.575485229,0.791763306,0.220932007
19366.14983,0.505783081,0.736923218,0.220489502
19375.81683,0.455276489,0.696594238,0.222930908
19385.50683,0.437561035,0.659561157,0.237716675
19395.19583,0.442077637,0.64100647,0.245010376
19404.87683,0.479797363,0.640136719,0.238876343
19414.55983,0.539352417,0.670135498,0.238204956
19424.24183,0.619857788,0.741592407,0.243499756
19433.92183,0.724655151,0.837158203,0.279571533
19443.59583,0.83416748,0.91519165,0.298629761
19453.27983,0.898956299,0.937316895,0.29510498
19462.95283,0.892730713,0.896072388,0.255187988
19472.63683,0.827484131,0.817642212,0.192810059
19482.31983,0.765365601,0.740539551,0.135284424
19491.99783,0.727340698,0.678909302,0.100738525
19501.68683,0.697875977,0.633132935,0.088806152
19511.36883,0.677688599,0.596878052,0.084014893
19521.06083,0.659255981,0.573913574,0.07472229
19530.75083,0.64125061,0.557006836,0.06060791
19540.43483,0.62449646,0.542251587,0.045135498
19550.11683,0.616195679,0.524108887,0.033706665
19559.79983,0.60975647,0.508453369,0.027587891
19569.48383,0.608825684,0.498077393,0.020095825
19579.16583,0.618255615,0.486816406,0.01260376
19588.84783,0.636932373,0.475982666,0.004379272
19598.50283,0.639129639,0.474533081,-0.015457153
19608.21383,0.651580811,0.480239868,-0.03793335
19617.89783,0.657821655,0.49432373,-0.058532715
19627.55683,0.661849976,0.519546509,-0.073547363
19637.26483,0.664749146,0.540817261,-0.093673706
19646.94783,0.668518066,0.561141968,-0.110351563
19656.60483,0.679672241,0.579681396,-0.118988037
19666.31583,0.691390991,0.595840454,-0.109817505
19676.00083,0.713943481,0.612213135,-0.103256226
19685.67683,0.731018066,0.629730225,-0.095825195
19695.36783,0.744171143,0.641571045,-0.106002808
19705.05083,0.761428833,0.631988525,-0.126174927
19714.73483,0.776306152,0.623382568,-0.153335571
19724.41283,0.781890869,0.612884521,-0.178878784
19734.10283,0.780639648,0.612625122,-0.194335938
19743.78683,0.775360107,0.604263306,-0.204330444
19753.47183,0.765014648,0.594146729,-0.215545654
19763.15583,0.767593384,0.572235107,-0.225967407
19772.83983,0.785507202,0.55015564,-0.226394653
19782.52383,0.830688477,0.525909424,-0.202453613
19792.19983,0.884231567,0.519180298,-0.160491943
19801.89183,0.938644409,0.531204224,-0.127441406
19811.57683,0.986633301,0.555206299,-0.092605591
19821.25183,1.037277222,0.575622559,-0.065628052
19830.94583,1.08114624,0.578765869,-0.028106689
19840.62983,1.118759155,0.567077637,-0.002990723
19850.30783,1.141372681,0.546005249,-0.021270752
19859.99783,1.154373169,0.536621094,-0.075958252
19869.68083,1.163253784,0.575683594,-0.152755737
19879.35783,1.183364868,0.643951416,-0.206481934
19889.04283,1.222976685,0.723022461,-0.23828125
19898.70483,1.249053955,0.80682373,-0.240539551
19908.37883,1.236709595,0.85295105,-0.218917847
19918.09183,1.155471802,0.8387146,-0.160079956
19927.77083,1.051803589,0.782226563,-0.081115723
19937.40083,0.943252563,0.73336792,-0.006958008
19947.08483,0.831985474,0.68800354,0.073730469
19956.76483,0.721954346,0.649780273,0.149993896
19966.45083,0.626693726,0.61882019,0.209197998
19976.10883,0.550979614,0.580368042,0.246795654
19985.81683,0.49005127,0.572341919,0.293334961
19995.50083,0.462051392,0.626220703,0.335342407
20005.18183,0.475463867,0.727371216,0.377197266
20014.83783,0.530319214,0.86315918,0.408966064
20024.52983,0.601104736,1.007278442,0.428726196
20034.22883,0.666976929,1.139266968,0.433242798
20043.90183,0.701446533,1.243438721,0.427444458
20053.59583,0.682876587,1.274337769,0.396514893
20063.27983,0.617416382,1.182357788,0.330032349
20072.95583,0.542739868,1.00630188,0.259109497
20082.64383,0.481231689,0.827056885,0.209411621
20092.32383,0.451416016,0.711883545,0.191680908
20102.00483,0.455841064,0.649963379,0.172607422
20111.68383,0.471588135,0.629974365,0.15788269
20121.36783,0.504119873,0.629486084,0.14239502
20131.04883,0.541595459,0.630737305,0.123046875
20140.73183,0.574432373,0.626831055,0.09815979
20150.39783,0.595458984,0.613388062,0.074142456
20160.09683,0.61529541,0.597167969,0.060028076
20169.78083,0.618972778,0.579483032,0.030990601
20179.45083,0.633209229,0.553604126,-0.01234436
20189.08583,0.647979736,0.538513184,-0.060821533
20198.76883,0.684555054,0.524383545,-0.142059326
20208.42583,0.739364624,0.516738892,-0.323013306
20218.13483,0.858886719,0.426330566,-0.884689331
20227.81283,0.886932373,0.34928894,-0.830734253
20237.47783,0.747039795,0.398742676,-0.305526733
20247.18283,0.641082764,0.499649048,-0.07232666
20256.86683,0.620300293,0.593719482,-0.053390503
20266.53983,0.632461548,0.666442871,-0.078643799
20276.23083,0.646133423,0.700744629,-0.084197998
20285.91383,0.658340454,0.680038452,-0.070144653
20295.59683,0.672012329,0.642272949,-0.03717041
20305.27983,0.687255859,0.610290527,-0.016571045
20314.96283,0.708282471,0.577957153,-0.044006348
20324.64483,0.739562988,0.547424316,-0.159088135
20334.32783,0.790817261,0.476135254,-0.477096558
20343.98483,0.854553223,0.39680481,-0.745407104
20353.69483,0.87890625,0.427261353,-0.683227539
20363.37883,0.85333252,0.54246521,-0.390304565
20373.06483,0.781524658,0.657318115,-0.116149902
20382.74683,0.729064941,0.695617676,0.022918701
20392.43083,0.702423096,0.68031311,0.042938232
20402.08883,0.702972412,0.670211792,0.019165039
20411.78983,0.73085022,0.683731079,0.025741577
20421.48183,0.783813477,0.727096558,0.037002563
20431.14383,0.851913452,0.808197021,-0.003479004
20440.84683,0.945373535,0.903579712,-0.252212524
20450.53083,1.095809937,0.897247314,-0.934768677
20460.21383,1.184738159,0.73274231,-1.169433594
20469.86983,1.101348877,0.683578491,-0.709182739
20479.58083,0.993530273,0.809158325,-0.266708374
20489.26583,0.970565796,0.89553833,-0.054977417
20498.95183,0.991333008,0.945449829,0.06350708
20508.62683,0.983566284,1.005874634,0.171844482
20518.32083,0.945373535,1.060852051,0.271240234
20528.00283,0.871383667,1.052032471,0.305892944
20537.67583,0.779037476,0.937774658,0.28074646
20547.37183,0.677841187,0.819274902,0.237762451
20557.03583,0.605438232,0.747360229,0.20350647
20566.73283,0.564376831,0.706298828,0.193527222
20576.39383,0.559616089,0.697311401,0.204299927
20586.10183,0.581619263,0.71307373,0.213317871
20595.77183,0.626205444,0.738113403,0.223648071
20605.45383,0.694854736,0.766281128,0.229187012
20615.13983,0.777053833,0.806838989,0.242126465
20624.82383,0.84538269,0.842300415,0.253219604
20634.51183,0.898727417,0.85585022,0.268554688
20644.20783,0.927154541,0.836700439,0.28717041
20653.89083,0.915100098,0.780212402,0.285903931
20663.57583,0.86138916,0.705169678,0.263015747
20673.23883,0.793609619,0.641403198,0.221801758
20682.94283,0.732757568,0.595275879,0.174850464
20692.62683,0.674545288,0.567932129,0.135910034
20702.29183,0.631378174,0.550598145,0.120834351
20711.99083,0.597976685,0.551467896,0.129699707
20721.67283,0.560791016,0.551086426,0.129989624
20731.34583,0.530197144,0.545440674,0.12487793
20741.03883,0.504882813,0.543045044,0.12336731
20750.72283,0.500991821,0.539794922,0.113357544
20760.40083,0.511444092,0.538650513,0.105392456
20770.08783,0.528259277,0.541183472,0.083892822
20779.77083,0.563430786,0.545379639,0.076278687
20789.45283,0.59803772,0.547698975,0.055130005
20799.13683,0.628173828,0.554046631,0.033508301
20808.79783,0.661315918,0.567855835,0.024551392
20818.50283,0.691329956,0.580184937,0.006210327
20828.18683,0.709106445,0.585678101,-0.005905151
20837.85483,0.719284058,0.595947266,-0.020721436
20847.55383,0.724716187,0.60118103,-0.036422729
20857.24083,0.72833252,0.599014282,-0.057662964
20866.90283,0.735946655,0.594619751,-0.078125
20876.60683,0.747970581,0.587097168,-0.106369019
20886.29083,0.759597778,0.577667236,-0.136688232
20895.96583,0.769897461,0.571594238,-0.163818359
20905.65883,0.775894165,0.56590271,-0.17578125
20915.34283,0.77835083,0.562606812,-0.181655884
20925.02583,0.779464722,0.561080933,-0.187728882
20934.70983,0.786712646,0.553833008,-0.202987671
20944.39283,0.800552368,0.546539307,-0.239227295
20954.07683,0.819473267,0.531585693,-0.290542603
20963.75383,0.823898315,0.535339355,-0.431518555
20973.43583,0.828918457,0.53755188,-0.520339966
20983.12683,0.883285522,0.543869019,-0.325119019
20992.80883,0.953063965,0.569610596,-0.127304077
21002.49283,0.97883606,0.591400146,-0.071624756
21012.17483,0.988021851,0.604110718,-0.047790527
21021.83783,0.991043091,0.607086182,-0.018783569
21031.53583,1.006668091,0.609664917,-0.001464844
21041.21983,1.03163147,0.604400635,-0.006362915
21050.90783,1.067428589,0.609466553,-0.04888916
21060.58683,1.118011475,0.645782471,-0.10736084
21070.27483,1.16885376,0.7059021,-0.174850464
21079.95783,1.225952148,0.783584595,-0.229003906
21089.62183,1.272247314,0.871292114,-0.268005371
21099.29483,1.286026001,0.938186646,-0.26890564
21108.97983,1.272567749,0.955490112,-0.227859497
21118.69483,1.180511475,0.90007019,-0.135513306
21128.37583,1.042495728,0.808944702,-0.052505493
21138.06583,0.909912109,0.722885132,0.031295776
21147.73083,0.789047241,0.656417847,0.091445923
21157.41583,0.698410034,0.613769531,0.153366089
21167.10483,0.634567261,0.588806152,0.222045898
21176.78283,0.56817627,0.576187134,0.291366577
21186.48383,0.514678955,0.586090088,0.353927612
21196.15783,0.491546631,0.619781494,0.405334473
21205.84983,0.483230591,0.702972412,0.468017578
21215.53283,0.523834229,0.82321167,0.530563354
21225.20183,0.586975098,0.946685791,0.563781738
21234.89783,0.642974854,1.049468994,0.534866333
21244.55783,0.6612854,1.11680603,0.479751587
21254.26283,0.635635376,1.15020752,0.443634033
21263.94583,0.578216553,1.082519531,0.396072388
21273.62883,0.518997192,0.926986694,0.340759277
21283.31283,0.483551025,0.791168213,0.30355835
21292.98983,0.476821899,0.69732666,0.286361694
21302.66383,0.499908447,0.645172119,0.258087158
21312.35883,0.53213501,0.619949341,0.235809326
21322.04083,0.566711426,0.61265564,0.203216553
21331.71683,0.591278076,0.61882019,0.169158936
21341.40483,0.610107422,0.603561401,0.138534546
21351.08883,0.614822388,0.581115723,0.100463867
21360.75883,0.603988647,0.544692993,0.070983887
21370.41633,0.598739624,0.505950928,0.043899536
21380.09733,0.592971802,0.484558105,0.024505615
21389.77133,0.598236084,0.477798462,-0.000961304
21399.46033,0.618057251,0.48387146,-0.031738281
21409.12033,0.641799927,0.496429443,-0.05909729
21418.81433,0.680847168,0.503890991,-0.117538452
21428.49933,0.707672119,0.526779175,-0.247238159
21438.15733,0.760147095,0.525558472,-0.943466187
21447.86133,0.80770874,0.448822021,-1.21194458
21457.54333,0.711975098,0.438705444,-0.51651001
21467.21133,0.615341187,0.506851196,-0.148666382
21476.90933,0.592208862,0.598602295,-0.087677002
21486.59333,0.621612549,0.662780762,-0.096038818
21496.25833,0.651290894,0.706497192,-0.105224609
21505.95933,0.676422119,0.700744629,-0.091339111
21515.64033,0.694229126,0.651977539,-0.059677124
21525.31533,0.703262329,0.585662842,-0.027496338
21535.00633,0.708877563,0.525527954,-0.022796631
21544.68833,0.740570068,0.472549438,-0.107818604
21554.37033,0.808395386,0.396026611,-0.339447021
21564.03433,0.864974976,0.374847412,-0.541320801
21573.71733,0.868164063,0.469116211,-0.461074829
21583.41633,0.789810181,0.649765015,-0.224517822
21593.09533,0.75038147,0.760040283,-0.063323975
21602.76933,0.762802124,0.787338257,-0.00479126
21612.44333,0.790664673,0.80696106,-0.007873535
21622.13433,0.829772949,0.842086792,-0.052230835
21631.82233,0.869750977,0.880172729,-0.106689453
21641.49033,0.944274902,0.886901855,-0.271820068
21651.17233,1.076828003,0.785476685,-0.593032837
21660.85433,1.166412354,0.634262085,-0.852233887
21670.53933,1.172271729,0.573852539,-0.729934692
21680.22033,1.149810791,0.659469604,-0.389038086
21689.90333,1.146072388,0.806610107,-0.150238037
21699.58333,1.143295288,0.916030884,-0.087722778
21709.25733,1.101089478,0.950012207,-0.053863525
21718.96933,0.997817993,0.913818359,0.054367065
21728.65133,0.901351929,0.86239624,0.115524292
21738.31433,0.801315308,0.815536499,0.141738892
21748.01433,0.711639404,0.76713562,0.165802002
21757.69533,0.638946533,0.732376099,0.177520752
21767.36533,0.591918945,0.702011108,0.197265625
21777.06033,0.55708313,0.68989563,0.229980469
21786.74333,0.53944397,0.695297241,0.259414673
21796.40333,0.561080933,0.70791626,0.285064697
21806.10933,0.612503052,0.734771729,0.312179565
21815.79333,0.675704956,0.779327393,0.334960938
21825.44933,0.757720947,0.824371338,0.341812134
21835.15933,0.842544556,0.854995728,0.338348389
21844.84333,0.915634155,0.861022949,0.338226318
21854.51233,0.956558228,0.844726563,0.316329956
21864.20933,0.951004028,0.81237793,0.265792847
21873.89033,0.916427612,0.776489258,0.204055786
21883.57433,0.85383606,0.732543945,0.156219482
21893.25533,0.786972046,0.675445557,0.140335083
21902.91033,0.716308594,0.615463257,0.15512085
21912.61933,0.649734497,0.574005127,0.157272339
21922.30033,0.580322266,0.553512573,0.15864563
21931.95433,0.525161743,0.533691406,0.156478882
21941.66433,0.498245239,0.517227173,0.130630493
21951.34633,0.492324829,0.492553711,0.104064941
21961.01533,0.508468628,0.460922241,0.076858521
21970.71033,0.536972046,0.448562622,0.054428101
21980.39133,0.583999634,0.444122314,0.015991211
21990.06533,0.610351563,0.453170776,-0.024276733
21999.75533,0.626678467,0.470611572,-0.037704468
22009.42733,0.641799927,0.487121582,-0.04788208
22019.12133,0.645874023,0.515823364,-0.061080933
22028.79533,0.648986816,0.539138794,-0.066421509
22038.46933,0.649459839,0.567016602,-0.06578064
22048.16933,0.650527954,0.579559326,-0.066772461
22057.85133,0.668701172,0.586578369,-0.071289063
22067.51933,0.690551758,0.592666626,-0.074356079
22077.21733,0.71875,0.603271484,-0.076965332
22086.90133,0.744827271,0.619720459,-0.080032349
22096.57433,0.769119263,0.637527466,-0.083023071
22106.24833,0.793914795,0.654098511,-0.085998535
22115.95033,0.810806274,0.663894653,-0.092483521
22125.62733,0.813323975,0.669662476,-0.106292725
22135.30133,0.79536438,0.662948608,-0.122802734
22144.97533,0.778945923,0.612442017,-0.176025391
22154.65933,0.780578613,0.540939331,-0.230773926
22164.30333,0.807235718,0.480789185,-0.281707764
22173.98533,0.832717896,0.43196106,-0.296417236
22183.65533,0.845153809,0.40675354,-0.294143677
22193.35133,0.86239624,0.410140991,-0.285446167
22203.03033,0.904388428,0.443435669,-0.231643677
22212.70833,0.963745117,0.500549316,-0.168365479
22222.40333,1.021942139,0.55569458,-0.133377075
22232.08533,1.038787842,0.611221313,-0.148086548
22241.74033,1.03012085,0.658111572,-0.185897827
22251.43533,1.065551758,0.688980103,-0.203979492
22261.10933,1.15296936,0.734481812,-0.201828003
22270.80633,1.251525879,0.789810181,-0.169281006
22280.48333,1.318618774,0.830978394,-0.101852417
22290.16133,1.328765869,0.854827881,-0.035720825
22299.84333,1.26373291,0.848510742,0.035766602
22309.52833,1.142669678,0.817184448,0.096740723
22319.21533,0.994140625,0.763824463,0.142486572
22328.91033,0.871948242,0.701797485,0.173553467
22338.59433,0.771896362,0.647994995,0.189697266
22348.26833,0.689315796,0.625274658,0.205001831
22357.96233,0.639038086,0.637207031,0.24848938
22367.64633,0.616424561,0.695220947,0.312866211
22377.32233,0.623153687,0.804794312,0.387313843
22387.01333,0.648406982,0.941192627,0.464401245
22396.69633,0.678955078,1.072937012,0.517593384
22406.37533,0.691345215,1.144073486,0.515899658
22416.06333,0.683578491,1.141021729,0.472122192
22425.74633,0.645401001,1.13041687,0.458282471
22435.42933,0.601257324,1.052398682,0.429367065
22445.11233,0.576812744,0.922851563,0.378875732
22454.76933,0.555557251,0.804641724,0.327682495
22464.48033,0.538330078,0.709915161,0.270874023
22474.16333,0.533172607,0.64781189,0.224151611
22483.82633,0.538375854,0.610107422,0.197723389
22493.53133,0.547821045,0.579269409,0.166702271
22503.21433,0.563064575,0.550964355,0.131134033
22512.88233,0.569473267,0.521469116,0.105987549
22522.58033,0.576782227,0.496002197,0.070571899
22532.26433,0.582992554,0.468780518,0.043533325
22541.93933,0.590637207,0.451126099,0.026779175
22551.63133,0.614471436,0.439041138,-0.000839233
22561.31033,0.640289307,0.436386108,-0.001251221
22570.99533,0.646621704,0.44354248,0.002288818
22580.67833,0.650283813,0.443313599,-0.014953613
22590.36133,0.655838013,0.452911377,-0.022964478
22600.04433,0.662200928,0.470245361,-0.029693604
22609.72233,0.664169312,0.496841431,-0.055130005
22619.38633,0.668869019,0.53112793,-0.099060059
22629.09733,0.678466797,0.568572998,-0.191345215
22638.78133,0.680908203,0.620544434,-0.436172485
22648.43833,0.706237793,0.650497437,-0.711471558
22658.15133,0.735946655,0.576019287,-0.544189453
22667.83633,0.707260132,0.482833862,-0.276916504
22677.51033,0.666946411,0.455276489,-0.194580078
22687.20133,0.671478271,0.469329834,-0.200180054
22696.88433,0.698822021,0.484298706,-0.216751099
22706.56933,0.7421875,0.490249634,-0.220489502
22716.23933,0.781433105,0.487487793,-0.227096558
22725.93533,0.801452637,0.460723877,-0.255569458
22735.61933,0.808944702,0.441009521,-0.30909729
22745.28233,0.801025391,0.441711426,-0.32611084
22754.97533,0.791931152,0.470825195,-0.266860962
22764.67033,0.78163147,0.547225952,-0.172409058
22774.35033,0.781387329,0.632141113,-0.090438843
22784.02733,0.797302246,0.716842651,-0.041702271
22793.70433,0.830932617,0.803512573,-0.011184692
22803.38933,0.873306274,0.880767822,-0.05317688
22813.06633,0.924514771,0.916931152,-0.178451538
22822.75533,1.003082275,0.887512207,-0.430770874
22832.43933,1.093322754,0.763565063,-0.679855347
22842.12433,1.101135254,0.630065918,-0.704620361
22851.82233,1.059753418,0.643997192,-0.504135132
22861.50633,1.016921997,0.777984619,-0.257629395
22871.18933,1.021331787,0.89012146,-0.096603394
22880.87533,1.038833618,0.996414185,-0.017669678
22890.55933,1.0131073,1.056503296,0.070877075
22900.24433,0.958404541,1.04208374,0.157012939
22909.92833,0.866470337,0.979187012,0.212646484
22919.58633,0.755096436,0.918502808,0.240524292
22929.29433,0.661895752,0.883255005,0.245376587
22938.97233,0.608352661,0.86529541,0.260437012
22948.63533,0.578201294,0.818450928,0.270050049
22958.34533,0.577026367,0.727813721,0.283309937
22968.02833,0.601104736,0.658798218,0.286453247
22977.69233,0.656158447,0.642913818,0.280166626
22987.39533,0.739440918,0.668487549,0.292724609
22997.07833,0.842697144,0.722290039,0.32598877
23006.75333,0.957489014,0.780883789,0.371124268
23016.41933,1.049102783,0.819534302,0.392593384
23026.12633,1.091033936,0.814193726,0.389923096
23035.80933,1.061553955,0.762786865,0.334671021
23045.49033,0.980255127,0.69052124,0.257827759
23055.17433,0.884185791,0.610473633,0.198303223
23064.85833,0.803695679,0.549438477,0.150543213
23074.54033,0.74307251,0.508056641,0.135192871
23084.19833,0.694885254,0.490814209,0.134857178
23093.90833,0.65196228,0.493865967,0.134048462
23103.59133,0.616546631,0.506256104,0.126617432
23113.25133,0.587020874,0.523620605,0.115325928
23122.95833,0.568786621,0.538803101,0.095581055
23132.64133,0.56036377,0.544296265,0.068222046
23142.31433,0.56262207,0.551055908,0.041442871
23152.00533,0.569519043,0.544342041,0.014801025
23161.68733,0.572570801,0.542694092,0.000762939
23171.35633,0.57711792,0.539245605,-0.007781982
23181.05333,0.584075928,0.559173584,-0.013275146
23190.73733,0.590988159,0.576080322,-0.021453857
23200.42033,0.587982178,0.599151611,-0.030899048
23210.10333,0.591720581,0.615585327,-0.04788208
23219.75833,0.597381592,0.625732422,-0.059341431
23229.46833,0.605484009,0.630340576,-0.067276001
23239.15133,0.62336731,0.627243042,-0.06942749
23248.83233,0.648452759,0.616851807,-0.072433472
23258.51633,0.677307129,0.60496521,-0.072662354
23268.19833,0.704925537,0.599945068,-0.075653076
23277.85633,0.732177734,0.586929321,-0.082260132
23287.56533,0.756622314,0.569549561,-0.094314575
23297.24733,0.783004761,0.54776001,-0.116470337
23306.92133,0.803924561,0.522994995,-0.154968262
23316.59333,0.821502686,0.506835938,-0.203231812
23326.29433,0.833343506,0.492584229,-0.242233276
23335.98133,0.838745117,0.472671509,-0.269958496
23345.64233,0.850311279,0.433532715,-0.282669067
23355.33133,0.876800537,0.405502319,-0.233947754
23365.01533,0.907455444,0.420394897,-0.142700195
23374.69733,0.954711914,0.451324463,-0.0909729
23384.36933,1.005004883,0.471908569,-0.06288147
23394.08133,1.060882568,0.486938477,-0.037765503
23403.75233,1.106689453,0.51473999,-0.023620605
23413.44233,1.109771729,0.552017212,-0.055541992
23423.12733,1.069519043,0.607040405,-0.110031128
23432.81133,1.061828613,0.666992188,-0.166015625
23442.46833,1.086990356,0.744064331,-0.213867188
23452.17533,1.142425537,0.835662842,-0.234390259
23461.85933,1.1953125,0.943862915,-0.226303101
23471.53533,1.221359253,1.014419556,-0.164291382
23481.22533,1.168487549,1.016967773,-0.069076538
23490.90833,1.052062988,0.961196899,0.031356812
23500.59133,0.924285889,0.87109375,0.117462158
23510.27533,0.804534912,0.78793335,0.179275513
23519.95733,0.716918945,0.714111328,0.212768555
23529.63833,0.647445679,0.680465698,0.246444702
23539.32033,0.604034424,0.678970337,0.298049927
23548.98133,0.583358765,0.700592041,0.355178833
23558.68433,0.592910767,0.753112793,0.409515381
23568.36733,0.635498047,0.846832275,0.452835083
23578.03433,0.685195923,0.956985474,0.479629517
23587.73533,0.731506348,1.077072144,0.503921509
23597.41733,0.752853394,1.149047852,0.489532471
23607.08233,0.739120483,1.1434021,0.432327271
23616.78333,0.684997559,1.05708313,0.354782104
23626.46533,0.617675781,0.927139282,0.308914185
23636.14233,0.562133789,0.806396484,0.296798706
23645.83133,0.516815186,0.701034546,0.272460938
23655.51433,0.486434937,0.61177063,0.225662231
23665.19733,0.470596313,0.556411743,0.189620972
23674.87933,0.473083496,0.516983032,0.16368103
23684.56333,0.481155396,0.488677979,0.139755249
23694.24633,0.499450684,0.4790802,0.115219116
23703.92933,0.526062012,0.465164185,0.092803955
23713.59333,0.551437378,0.453186035,0.076187134
23723.29733,0.5703125,0.456802368,0.05229187
23732.97933,0.581665039,0.462387085,0.034744263
23742.64533,0.594207764,0.470458984,0.007110596
23752.34033,0.624633789,0.47227478,-0.013778687
23762.02833,0.662734985,0.479431152,-0.030456543
23771.70233,0.708755493,0.489883423,-0.052490234
23781.39433,0.748825073,0.511367798,-0.101226807
23791.07833,0.781463623,0.549194336,-0.22467041
23800.76133,0.846069336,0.547210693,-0.732376099
23810.42533,0.90776062,0.498657227,-0.969741821
23820.12833,0.833679199,0.475372314,-0.594009399
23829.80433,0.70161438,0.521850586,-0.291351318
23839.48033,0.649169922,0.599243164,-0.181335449
23849.15133,0.656707764,0.654754639,-0.134170532
23858.84533,0.682693481,0.663604736,-0.086914063
23868.53133,0.697189331,0.639312744,-0.033676147
23878.20533,0.687408447,0.611999512,0.015594482
23887.89733,0.679031372,0.57824707,0.031341553
23897.58333,0.681793213,0.522232056,-0.02015686
23907.27833,0.716262817,0.44493103,-0.179412842
23916.96533,0.778610229,0.382843018,-0.377029419
23926.64933,0.82484436,0.404708862,-0.414291382
23936.31833,0.832733154,0.501327515,-0.276489258
23946.01733,0.788085938,0.634140015,-0.152557373
23955.69533,0.765625,0.740509033,-0.097869873
23965.38633,0.773132324,0.804534912,-0.074523926
23975.07033,0.795669556,0.840667725,-0.071868896
23984.74133,0.828369141,0.851898193,-0.110977173
23994.43733,0.878707886,0.828323364,-0.242095947
24004.12033,0.958587646,0.733718872,-0.4609375
24013.79533,1.008270264,0.592025757,-0.693771362
24023.48933,1.013900757,0.530563354,-0.672851563
24033.17333,1.012420654,0.632598877,-0.333190918
24042.83733,1.022979736,0.811584473,-0.038864136
24052.54333,1.045333862,0.942077637,0.072479248
24062.22733,1.056976318,1.003509521,0.102264404
24071.90133,1.003982544,1.021636963,0.131973267
24081.59333,0.908935547,0.965774536,0.175765991
24091.27733,0.802520752,0.890716553,0.207931519
24100.95333,0.722488403,0.836761475,0.218719482
24110.64433,0.690444946,0.824142456,0.248016357
24120.32833,0.682846069,0.844299316,0.280288696
24130.01233,0.687530518,0.873153687,0.310058594
24139.69733,0.71043396,0.87638855,0.334320068
24149.35333,0.733108521,0.843185425,0.336456299
24159.06233,0.771255493,0.817092896,0.320968628
24168.74933,0.823791504,0.800765991,0.299316406
24178.41833,0.893814087,0.794387817,0.289337158
