time (ms),accelerometerAccelerationX,accelerometerAccelerationY,accelerometerAccelerationZ
0,0.028991699,-0.100189209,-0.986785889
9.688,0.019882202,-0.129364014,-0.935577393
19.382,-0.002334595,-0.116241455,-0.997467041
29.047,-0.022216797,-0.115921021,-1.023178101
38.723,0.001220703,-0.140716553,-1.03692627
48.402,0.004699707,-0.167221069,-1.051086426
58.101,-0.003814697,-0.197280884,-1.058242798
67.775,-0.031082153,-0.225036621,-1.115737915
77.459,-0.078933716,-0.206970215,-1.157546997
87.124,-0.050491333,-0.164520264,-1.10144043
96.815,0.0131073,-0.157562256,-1.027099609
106.494,0.001342773,-0.180496216,-0.959976196
116.156,-0.049194336,-0.188827515,-0.880325317
125.852,-0.079544067,-0.151260376,-0.840606689
135.53,-0.085708618,-0.122055054,-0.850204468
145.19,-0.080169678,-0.140258789,-0.867645264
154.887,-0.043029785,-0.175308228,-0.896362305
164.566,-0.025527954,-0.203170776,-0.95803833
174.231,-0.020278931,-0.217910767,-0.994003296
183.925,-0.03062439,-0.217651367,-1.005355835
193.603,-0.042663574,-0.217712402,-1.005203247
203.281,-0.064544678,-0.219909668,-0.984069824
212.958,-0.063079834,-0.223861694,-0.946807861
222.632,-0.06741333,-0.214813232,-0.926513672
232.314,-0.075469971,-0.186752319,-0.93800354
241.992,-0.067138672,-0.192932129,-0.945098877
251.642,-0.053100586,-0.205459595,-0.937835693
261.348,-0.057830811,-0.195739746,-0.923248291
271.021,-0.06741333,-0.1847229,-0.907928467
280.696,-0.081604004,-0.12701416,-1.029174805
290.383,-0.071655273,-0.143218994,-1.077987671
300.056,-0.010391235,-0.147720337,-0.966018677
309.722,0.00302124,-0.154129028,-0.90914917
319.415,-0.032302856,-0.208328247,-0.892166138
329.092,-0.082672119,-0.265182495,-0.883529663
338.761,-0.125518799,-0.258666992,-0.80329895
348.425,-0.166213989,-0.17376709,-0.709075928
358.125,-0.168533325,-0.078704834,-0.652313232
367.802,-0.136169434,-0.024047852,-0.638824463
377.481,-0.062194824,-0.015426636,-0.653564453
387.153,0.028381348,-0.038314819,-0.691741943
396.838,0.057281494,-0.015548706,-0.761138916
406.514,0.058044434,0.021011353,-0.836593628
416.17,0.041702271,0.007034302,-0.852172852
425.869,0.015365601,-0.030334473,-0.806167603
435.548,-0.005706787,-0.058731079,-0.724761963
445.227,-0.001846313,-0.088790894,-0.664230347
454.901,-0.021453857,-0.117141724,-0.643432617
464.567,0.000106812,-0.127029419,-0.579864502
474.248,0.043197632,-0.140899658,-0.521530151
483.937,0.081726074,-0.161911011,-0.556991577
493.608,0.100357056,-0.161087036,-0.647369385
503.289,0.108291626,-0.172775269,-0.717987061
512.97,0.092926025,-0.196792603,-0.766418457
522.65,0.083114624,-0.18447876,-0.800521851
532.331,0.068939209,-0.143814087,-0.828323364
542.028,0.091033936,-0.088317871,-0.86567688
551.703,0.122848511,-0.068191528,-0.937637329
561.388,0.175430298,-0.060821533,-1.014572144
571.067,0.203262329,-0.132339478,-1.087768555
580.725,0.174560547,-0.192703247,-1.119430542
590.427,0.107833862,-0.15574646,-1.090637207
600.105,0.034484863,-0.060119629,-1.070907593
609.757,0.016189575,0.009567261,-1.092407227
619.462,0.015258789,0.019180298,-1.134292603
629.141,0.033340454,-0.005218506,-1.166870117
638.812,0.051071167,-0.027893066,-1.157272339
648.498,0.039596558,-0.14302063,-1.128311157
658.179,-0.052932739,-0.1068573,-0.982757568
667.86,-0.141174316,0.040420532,-0.960891724
677.532,-0.172225952,0.090820313,-0.952972412
687.219,-0.159820557,0.111984253,-0.93939209
696.898,-0.177429199,0.154388428,-0.995513916
706.577,-0.179199219,0.166534424,-1.082595825
716.254,-0.153625488,0.150283813,-1.091690063
725.932,-0.100875854,0.054168701,-0.974868774
735.611,-0.089309692,-0.070205688,-0.881072998
745.276,-0.141891479,-0.155593872,-0.861557007
754.95,-0.23260498,-0.187423706,-0.885559082
764.649,-0.291442871,-0.070510864,-0.942230225
774.32,-0.347503662,0.153884888,-0.995300293
784.005,-0.392608643,0.255523682,-1.002166748
793.658,-0.55871582,0.434188843,-1.023391724
803.332,-0.606536865,0.397537231,-0.947143555
813.035,-0.528152466,0.230743408,-0.93649292
822.7,-0.411697388,0.062942505,-0.958709717
832.398,-0.338272095,-0.009063721,-0.940948486
842.078,-0.338500977,-0.025253296,-0.90675354
851.738,-0.357894897,-0.004760742,-0.945983887
861.437,-0.369491577,0.048095703,-1.025878906
871.115,-0.473327637,0.091522217,-1.025177002
880.775,-0.632888794,0.126190186,-1.011047363
890.464,-0.787322998,0.16998291,-0.988525391
900.153,-0.850830078,0.138275146,-1.000396729
909.827,-0.795700073,0.060943604,-0.973297119
919.485,-0.683303833,-0.014907837,-0.916168213
929.188,-0.622848511,-0.052444458,-0.833084106
938.856,-0.609054565,-0.047454834,-0.748504639
948.534,-0.654647827,-0.042053223,-0.668121338
958.198,-0.813140869,-0.069702148,-0.688430786
967.894,-0.966171265,-0.046798706,-0.678756714
977.58,-1.021118164,-0.001907349,-0.634918213
987.237,-1.011001587,0.026687622,-0.646957397
996.917,-0.989227295,0.014801025,-0.664352417
1006.612,-1.029693604,-0.024963379,-0.705841064
1016.276,-0.981903076,0.005905151,-0.643005371
1025.952,-0.943099976,0.000167847,-0.616195679
1035.647,-0.938430786,-0.007598877,-0.60723877
1045.325,-0.958602905,-0.003616333,-0.559448242
1055.005,-1.030914307,0.058837891,-0.504043579
1064.682,-1.05796814,0.007125854,-0.489013672
1074.333,-1.005783081,-0.10774231,-0.53012085
1084.037,-0.937744141,-0.108093262,-0.557434082
1093.715,-0.907806396,-0.089141846,-0.528182983
1103.385,-0.814163208,-0.061035156,-0.519607544
1113.072,-0.812637329,-0.068145752,-0.503356934
1122.749,-0.842224121,-0.102035522,-0.422729492
1132.422,-0.901992798,-0.128845215,-0.326766968
1142.105,-0.955581665,-0.123153687,-0.216293335
1151.783,-0.985473633,-0.098724365,-0.140228271
1161.377625,-1.013900757,-0.136688232,-0.029541016
1171.036625,-1.009124756,-0.204040527,0.034820557
1180.705625,-1.05128479,-0.252380371,0.089950562
1190.412625,-1.108688354,-0.258529663,0.137908936
1200.091625,-1.168685913,-0.235519409,0.196044922
1209.758625,-1.230163574,-0.182022095,0.258132935
1219.384625,-1.290130615,-0.105834961,0.305145264
1229.062625,-1.337600708,-0.032775879,0.341903687
1238.733625,-1.344421387,0.026931763,0.347686768
1248.419625,-1.327758789,0.0050354,0.361816406
1258.081625,-1.359405518,-0.062240601,0.409957886
1267.755625,-1.340576172,-0.023590088,0.435928345
1277.451625,-1.291992188,0.074325562,0.414520264
1287.104625,-1.290725708,0.096206665,0.335708618
1296.803625,-1.305603027,0.091690063,0.268814087
1306.482625,-1.339157104,0.115692139,0.220352173
1316.161625,-1.356719971,0.178314209,0.14050293
1325.829625,-1.348892212,0.217666626,0.044403076
1335.514625,-1.350830078,0.209396362,-0.039550781
1345.190625,-1.388458252,0.131439209,-0.135803223
1354.869625,-1.239257813,0.201690674,-0.075302124
1364.547625,-1.209106445,0.270751953,-0.163284302
1374.201625,-1.262832642,0.268676758,-0.264648438
1383.898625,-1.274475098,0.268234253,-0.307876587
1393.579625,-1.223480225,0.277114868,-0.335357666
1403.252625,-1.136444092,0.244110107,-0.349472046
1412.928625,-1.157562256,0.273040771,-0.222885132
1422.615625,-1.12928772,0.296401978,-0.219696045
1432.277625,-1.054016113,0.297729492,-0.264526367
1441.950625,-0.975280762,0.294067383,-0.285507202
1451.630625,-0.933898926,0.271438599,-0.396026611
1461.298625,-0.876571655,0.350845337,-0.366317749
1470.989625,-0.923110962,0.390731812,-0.232315063
1480.668625,-0.952758789,0.341171265,-0.321884155
1490.346625,-0.856628418,0.34979248,-0.331954956
1500.040625,-0.789886475,0.307296753,-0.258209229
1509.718625,-0.792617798,0.16305542,-0.13482666
1519.395625,-0.765563965,0.114974976,-0.121505737
1529.073625,-0.761123657,0.137161255,-0.075271606
1538.721625,-0.731018066,0.192901611,-0.053787231
1548.429625,-0.676818848,0.269439697,-0.093475342
1558.107625,-0.722213745,0.220947266,-0.035949707
1567.774625,-0.761123657,0.131072998,-0.084075928
1577.464625,-0.787460327,0.141281128,-0.1277771
1587.136625,-0.839767456,0.212692261,-0.116210938
1596.794625,-0.869430542,0.214004517,-0.161239624
1606.499625,-0.879379272,0.191360474,-0.188980103
1616.179625,-0.834396362,0.168792725,-0.288726807
1625.849625,-0.863769531,0.173294067,-0.35748291
1635.534625,-1.010696411,0.256515503,-0.190795898
1645.212625,-0.951416016,0.238693237,-0.294998169
1654.889625,-0.932037354,0.235717773,-0.190292358
1664.545625,-0.938644409,0.173095703,-0.154403687
1674.246625,-0.916168213,0.153152466,-0.161071777
1683.924625,-0.909896851,0.158126831,-0.102279663
1693.603625,-0.931228638,0.184387207,-0.107574463
1703.277625,-0.986251831,0.190841675,-0.172668457
1712.958625,-1.068374634,0.174102783,-0.184371948
1722.632625,-1.067825317,0.189956665,-0.094482422
1732.293625,-0.942962646,0.071746826,-0.013748169
1741.996625,-0.887512207,0.048995972,0.122390747
1751.673625,-0.871765137,0.086288452,0.11227417
1761.348625,-0.858291626,0.14465332,-0.063201904
1771.028625,-0.865524292,0.160842896,-0.188964844
1780.705625,-0.795150757,0.113754272,-0.24810791
1790.368625,-0.681472778,0.055496216,-0.220153809
1800.061625,-0.654266357,0.032546997,-0.173934937
1809.740625,-0.644805908,0.007629395,-0.178512573
1819.417625,-0.671768188,0.012786865,-0.206451416
1829.096625,-0.731216431,0.007400513,-0.204772949
1838.770625,-0.834197998,0.059173584,-0.183609009
1848.452625,-0.882919312,0.077850342,-0.188552856
1858.129625,-0.910217285,0.062332153,-0.176574707
1867.785625,-0.886657715,0.009124756,-0.034194946
1877.489625,-0.857940674,-0.00920105,0.054382324
1887.140625,-0.83644104,0.014755249,0.060958862
1896.845625,-0.846115112,0.080062866,0.043884277
1906.520625,-0.818466187,0.225646973,0.012237549
1916.192625,-0.742095947,0.268249512,-0.035522461
1925.867625,-0.687026978,0.300125122,-0.114501953
1935.541625,-0.698898315,0.391098022,-0.200271606
1945.220625,-0.780639648,0.426834106,-0.276504517
1954.899625,-1.221908569,0.445541382,-0.279418945
1964.579625,-1.727554321,0.565658569,-0.22857666
1974.258625,-1.434188843,0.359283447,-0.288543701
1983.937625,-1.188613892,0.136749268,-0.403594971
1993.632625,-1.077575684,0.200561523,-0.324874878
2003.290625,-1.047668457,0.453811646,-0.183654785
2012.992625,-0.978256226,0.499008179,-0.121734619
2022.672625,-0.86177063,0.4009552,-0.061920166
2032.343625,-0.842834473,0.540023804,0.017730713
2042.028625,-0.563812256,0.573394775,-0.025268555
2051.706625,-0.839874268,0.815155029,-0.220230103
2061.360625,-0.776000977,0.54699707,-0.361221313
2071.039625,-0.672866821,0.636505127,-0.343292236
2080.743625,-0.599105835,0.758407593,-0.287384033
2090.415625,-0.576293945,0.767486572,-0.21031189
2100.101625,-0.541030884,0.707931519,-0.169494629
2109.782625,-0.577255249,0.719924927,-0.158798218
2119.455625,-0.639541626,0.72467041,-0.177978516
2129.138625,-0.646835327,0.696060181,-0.18460083
2138.788625,-0.650543213,0.665222168,-0.154205322
2148.496625,-0.653991699,0.673675537,-0.120513916
2158.175625,-0.650436401,0.735290527,-0.08631897
2167.833625,-0.662063599,0.759918213,-0.086242676
2177.531625,-0.562820435,0.831481934,-0.063400269
2187.207625,-0.510681152,0.91192627,-0.019195557
2196.864625,-0.457305908,0.94418335,-0.104629517
2206.562625,-0.46321106,0.981689453,-0.244064331
2216.239625,-0.460876465,1.020584106,-0.328765869
2225.906625,-0.487792969,1.003570557,-0.338989258
2235.593625,-0.511688232,0.978118896,-0.335189819
2245.269625,-0.504211426,0.975387573,-0.315505981
2254.939625,-0.452011108,1.014205933,-0.307052612
2264.623625,-0.331481934,1.081375122,-0.322387695
2274.296625,-0.324829102,1.114852905,-0.27230835
2283.977625,-0.343933105,1.062576294,-0.188751221
2293.655625,-0.327346802,1.020889282,-0.175735474
2303.308625,-0.373046875,0.950820923,-0.17010498
2313.009625,-0.276672363,0.777877808,-0.181350708
2322.679625,-0.348953247,0.813034058,-0.204879761
2332.361625,-0.478668213,0.698074341,-0.216293335
2342.037625,-0.57460022,0.504425049,-0.179046631
2351.714625,-0.604537964,0.538848877,-0.047668457
2361.383625,-0.577423096,0.557907104,-0.033737183
2371.067625,-0.515533447,0.611602783,-0.080841064
2380.744625,-0.408416748,0.696624756,-0.094421387
2390.410625,-0.302185059,0.700027466,-0.066772461
2400.080625,-0.247665405,0.674621582,-0.091522217
2409.773625,-0.262893677,0.582565308,-0.191223145
2419.428625,-0.274963379,0.492584229,-0.33303833
2429.127625,-0.233505249,0.39855957,-0.452835083
2438.776625,-0.320739746,0.495559692,-0.459823608
2448.481625,-0.390304565,0.579711914,-0.466323853
2458.142625,-0.437698364,0.685287476,-0.435272217
2467.821625,-0.498153687,0.733840942,-0.368469238
2477.500625,-0.546203613,0.755767822,-0.320785522
2487.178625,-0.523193359,0.911956787,-0.159439087
2496.852625,-0.42364502,0.959365845,-0.068344116
2506.554625,-0.347091675,0.949417114,-0.036239624
2516.231625,-0.245407104,1.05291748,0.054260254
2525.892625,-0.2137146,1.232147217,0.043395996
2535.586625,-0.188751221,1.412353516,-0.027297974
2545.264625,-0.165390015,1.63885498,-0.102020264
2554.929625,-0.203125,1.689483643,-0.071868896
2564.622625,-0.260116577,1.734115601,0.087646484
2574.300625,-0.252807617,1.599716187,0.12322998
2583.977625,-0.275054932,1.308898926,0.06312561
2593.654625,-0.306213379,1.103179932,0.02645874
2603.327625,-0.322769165,1.081161499,-0.046066284
2613.011625,-0.309036255,0.991195679,-0.081817627
2622.690625,-0.257354736,0.789474487,-0.16204834
2632.349625,-0.174163818,0.658325195,-0.210021973
2642.049625,-0.167404175,0.676696777,-0.103866577
2651.728625,-0.290161133,0.772155762,0.008956909
2661.402625,-0.303543091,0.858276367,0.060470581
2671.084625,-0.207168579,0.976715088,-0.481811523
2680.760625,-0.20300293,0.99861145,-0.028167725
2690.427625,-0.259994507,1.019943237,-0.010055542
2700.115625,-0.27255249,1.015228271,-0.086807251
2709.794625,-0.226348877,0.99987793,-0.101348877
2719.465625,-0.233901978,0.952285767,-0.102722168
2729.151625,-0.236923218,0.933258057,-0.120223999
2738.827625,-0.228790283,0.946182251,-0.092987061
2748.504625,-0.223129272,0.965087891,-0.07182312
2758.181625,-0.205825806,0.9765625,-0.048324585
2767.860625,-0.161895752,1.01399231,-0.042617798
2777.537625,-0.112533569,1.091659546,-0.006912231
2787.214625,-0.072738647,1.157455444,0.015090942
2796.869625,-0.097930908,1.128860474,-0.013397217
2806.569625,-0.148712158,1.052352905,-0.068023682
2816.246625,-0.127288818,1.049285889,-0.113891602
2825.896625,-0.154495239,1.002670288,-0.177886963
2835.602625,-0.189376831,0.875778198,-0.238388062
2845.280625,-0.263565063,0.79447937,-0.242279053
2854.946625,-0.332519531,0.766113281,-0.179534912
2864.635625,-0.324356079,0.81388855,-0.162750244
2874.315625,-0.282852173,0.791259766,-0.165084839
2883.994625,-0.221282959,0.703857422,-0.137130737
2893.673625,-0.185211182,0.626693726,-0.116149902
2903.336625,-0.162628174,0.593002319,-0.109924316
2913.020625,-0.169845581,0.567230225,-0.091018677
2922.693625,-0.252624512,0.573196411,-0.064056396
2932.367625,-0.391555786,0.586380005,0.042098999
2942.063625,-0.320770264,0.706573486,0.036865234
2951.727625,-0.151779175,0.524459839,-0.096618652
2961.420625,-0.228179932,0.400466919,-0.096099854
2971.086625,-0.197555542,0.272399902,-0.073242188
2980.770625,-0.160018921,0.464065552,-0.098724365
2990.442625,-0.155990601,0.671676636,-0.102615356
3000.141625,-0.172683716,0.853912354,-0.111297607
3009.820625,-0.118560791,1.047393799,0.000762939
3019.490625,-0.141723633,1.130569458,0.098983765
3029.176625,-0.250106812,1.246841431,0.100891113
3038.856625,-0.334594727,1.367294312,0.046234131
3048.533625,-0.364501953,1.494003296,0.031723022
3058.211625,-0.379852295,1.654083252,0.016189575
3067.865625,-0.372894287,1.619750977,0.041778564
3077.566625,-0.310974121,1.537750244,0.0206604
3087.244625,-0.279754639,1.470031738,-0.007354736
3096.918625,-0.257492065,1.379486084,-0.04385376
3106.600625,-0.254180908,1.260940552,-0.080978394
3116.278625,-0.257232666,1.145858765,-0.097717285
3125.940625,-0.242584229,1.057037354,-0.088546753
3135.636625,-0.231246948,0.990447998,-0.084396362
3145.315625,-0.228149414,0.943557739,-0.08303833
3154.985625,-0.223052979,0.907623291,-0.066070557
3164.675625,-0.230667114,0.877044678,-0.040344238
3174.353625,-0.218994141,0.860671997,-0.022277832
3184.027625,-0.197006226,0.834960938,-0.025283813
3193.712625,-0.166793823,0.801239014,-0.044815063
3203.394625,-0.108108521,0.803527832,-0.057327271
3213.071625,0.078918457,0.993423462,0.09223938
3222.750625,0.069366455,1.030426025,0.000900269
3232.428625,0.031204224,1.013641357,-0.136123657
3242.108625,0.022537231,1.015670776,-0.168319702
3251.786625,-0.016143799,0.956130981,-0.212875366
3261.436625,-0.031570435,0.924102783,-0.208450317
3271.124625,-0.044052124,0.899673462,-0.162826538
3280.798625,-0.059509277,0.869598389,-0.101425171
3290.470625,-0.073562622,0.834060669,-0.036376953
3300.175625,-0.097808838,0.749130249,0.025726318
3309.860625,-0.083633423,0.664291382,0.033950806
3319.529625,-0.049072266,0.612533569,-0.049163818
3329.217625,-0.017684937,0.596694946,-0.073730469
3338.894625,0.008651733,0.561538696,-0.086181641
3348.572625,0.056228638,0.568572998,-0.124771118
3358.249625,0.123428345,0.59916687,-0.17225647
3367.914625,0.154541016,0.553649902,-0.170425415
3377.604625,0.175949097,0.514434814,-0.18586731
3387.283625,0.174194336,0.483932495,-0.151611328
3396.936625,0.172210693,0.476028442,-0.089569092
3406.638625,0.174453735,0.436798096,-0.072067261
3416.317625,0.18838501,0.440231323,-0.10597229
3425.990625,0.207122803,0.481460571,-0.151062012
3435.663625,0.255722046,0.587112427,-0.211975098
3445.337625,0.402908325,2.01222229,-0.322677612
3455.017625,0.764343262,4.363464355,-0.294967651
3464.701625,0.722747803,3.841934204,-0.325775146
3474.366625,0.529174805,2.606460571,-0.349304199
3484.045625,0.331161499,1.637832642,-0.253601074
3493.725625,0.190460205,1.045883179,-0.122528076
3503.404625,0.172775269,0.730529785,-0.066879272
3513.094625,0.195022583,0.622039795,-0.030303955
3522.779625,0.241409302,0.683532715,-0.001525879
3532.456625,0.279556274,0.841262817,0.027038574
3542.108625,0.286437988,0.956207275,-0.003250122
3551.811625,0.266525269,0.98223877,-0.074462891
3561.487625,0.249221802,0.924530029,-0.154174805
3571.169625,0.257843018,0.865432739,-0.224136353
3580.835625,0.28968811,0.863952637,-0.240783691
3590.509625,0.325378418,0.888122559,-0.228164673
3600.509625,0.337814331,0.859008789,-0.204605103
3610.124625,0.34703064,0.812973022,-0.19303894
3619.802625,0.373352051,0.810256958,-0.183303833
3629.486625,0.386627197,0.810073853,-0.172210693
3639.176625,0.394989014,0.822967529,-0.179763794
3648.833625,0.419021606,0.879638672,-0.183792114
3658.507625,0.436035156,0.933059692,-0.189025879
3668.213625,0.425231934,0.956787109,-0.18560791
3677.890625,0.406707764,1.008789063,-0.188858032
3687.558625,0.398590088,1.083511353,-0.170959473
3697.245625,0.369598389,1.107757568,-0.122314453
3706.922625,0.339614868,1.117111206,-0.084274292
3716.591625,0.293258667,1.099014282,-0.048782349
3726.278625,0.251922607,1.096389771,0.015518188
3735.956625,0.210784912,1.081604004,0.092300415
3745.633625,0.180923462,1.061508179,0.162109375
3755.313625,0.173461914,1.045837402,0.19708252
3764.991625,0.161102295,1.033126831,0.190628052
3774.665625,0.15246582,1.017333984,0.132766724
3784.348625,0.168991089,1.001113892,0.049209595
3794.005625,0.196426392,0.989624023,-0.040374756
3803.703625,0.23677063,0.969146729,-0.102645874
3813.383625,0.275039673,0.949386597,-0.16242981
3823.035625,0.314361572,0.944656372,-0.222747803
3832.741625,0.369949341,0.962402344,-0.283401489
3842.419625,0.42250061,0.980270386,-0.313095093
3852.080625,0.465362549,0.979324341,-0.315078735
3861.710625,0.481323242,0.966186523,-0.291595459
3871.388625,0.467330933,0.952041626,-0.237319946
3881.056625,0.429641724,0.93649292,-0.170974731
3890.745625,0.392120361,0.938079834,-0.102905273
3900.421625,0.352401733,0.943710327,-0.050537109
3910.093625,0.315811157,0.964645386,0.02142334
3919.779625,0.283554077,0.998580933,0.110107422
3929.457625,0.245254517,1.032821655,0.221160889
3939.136625,0.203781128,1.037902832,0.305007935
3948.814625,0.174285889,0.982589722,0.305541992
3958.493625,0.148071289,0.895599365,0.202926636
3968.170625,0.127548218,0.830764771,0.027648926
3977.849625,0.146560669,0.806350708,-0.139633179
3987.499625,0.170761108,0.800170898,-0.272903442
3997.205625,0.200119019,0.811889648,-0.341293335
4006.882625,0.260375977,0.849014282,-0.366012573
4016.561625,0.324371338,0.933044434,-0.34967041
4026.235625,0.382293701,1.022186279,-0.31137085
4035.917625,0.438308716,1.068908691,-0.259719849
4045.570625,0.481338501,1.073059082,-0.198043823
4055.273625,0.503723145,1.036376953,-0.128112793
4064.936625,0.471710205,0.963424683,-0.063034058
4074.624625,0.407577515,0.889816284,-0.011993408
4084.287625,0.33039856,0.847381592,0.015655518
4093.986625,0.270950317,0.830078125,0.019470215
4103.650625,0.212112427,0.828979492,0.001296997
4113.338625,0.178878784,0.839645386,-0.036148071
4122.999625,0.150085449,0.866134644,-0.074707031
4132.693625,0.101486206,0.886352539,-0.103347778
4142.370625,0.054534912,0.910018921,-0.132888794
4152.047625,0.040405273,0.972259521,-0.159408569
4161.697625,0.064697266,1.080444336,-0.143753052
4171.399625,0.076461792,1.167190552,-0.127502441
4181.074625,0.099334717,1.243621826,-0.091217041
4190.739625,0.112289429,1.257293701,-0.052963257
4200.419625,0.112686157,1.208251953,-0.012390137
4210.087625,0.110305786,1.150756836,0.020477295
4219.774625,0.119781494,1.103149414,0.051025391
4229.457625,0.147277832,1.070663452,0.061203003
4239.121625,0.175033569,1.037200928,0.067764282
4248.822625,0.178970337,1.006210327,0.058273315
4258.476625,0.18522644,0.972412109,0.03767395
4268.173625,0.176635742,0.970153809,-0.018798828
4277.850625,0.161010742,0.98210144,-0.081695557
4287.505625,0.140380859,0.992904663,-0.132034302
4297.203625,0.110305786,0.981063843,-0.172119141
4306.867625,0.074234009,0.968399048,-0.191375732
4316.535625,0.068572998,0.931533813,-0.20401001
4326.236625,0.126281738,0.862564087,-0.201889038
4335.912625,0.17767334,0.827407837,-0.19152832
4345.563625,0.230438232,0.843917847,-0.175384521
4355.267625,0.288696289,0.880432129,-0.137832642
4364.944625,0.319885254,0.929077148,-0.08392334
4374.613625,0.328308105,0.967514038,-0.038650513
4384.300625,0.318954468,0.983688354,-0.00151062
4393.978625,0.296020508,0.976135254,0.013031006
4403.655625,0.26802063,0.94909668,0.006484985
4413.333625,0.233947754,0.915649414,-0.013412476
4423.010625,0.208938599,0.895401001,-0.048034668
4432.681625,0.187561035,0.867141724,-0.079177856
4442.363625,0.179321289,0.85987854,-0.105743408
4452.039625,0.19090271,0.854171753,-0.155853271
4461.719625,0.207382202,0.861129761,-0.196121216
4471.398625,0.22114563,0.885879517,-0.22442627
4481.046625,0.246826172,0.920822144,-0.236968994
4490.752625,0.270751953,0.967681885,-0.232345581
4500.428625,0.281845093,1.031112671,-0.207748413
4510.084625,0.292510986,1.076629639,-0.158203125
4519.782625,0.276641846,1.104324341,-0.085296631
4529.461625,0.232818604,1.110351563,-0.00579834
4539.132625,0.174057007,1.136703491,0.075454712
4548.816625,0.097412109,1.175048828,0.111740112
4558.494625,0.033477783,1.229553223,0.102264404
4568.170625,0.033843994,1.290939331,0.051620483
4577.847625,0.087295532,1.314788818,-0.035705566
4587.507625,0.140579224,1.282745361,-0.128128052
4597.201625,0.184539795,1.215118408,-0.199035645
4606.878625,0.245620728,1.136657715,-0.212265015
4616.554625,0.280807495,1.112701416,-0.203323364
4626.203625,0.243545532,1.17024231,-0.211471558
4635.906625,0.180206299,1.197723389,-0.228134155
4645.582625,0.126419067,1.159317017,-0.202392578
4655.234625,0.073135376,1.107147217,-0.126846313
4664.930625,0.056350708,1.094345093,-0.031158447
4674.592625,0.056655884,1.109130859,0.085998535
4684.270625,0.053833008,1.121307373,0.185073853
4693.948625,0.055862427,1.136871338,0.272766113
4703.627625,0.075714111,1.187911987,0.367019653
4713.300625,0.096115112,1.225128174,0.469421387
4722.979625,0.075683594,1.21395874,0.558319092
4732.671625,0.01499939,1.227432251,0.604568481
4742.347625,-0.042098999,1.231750488,0.571136475
4751.998625,-0.068267822,1.251495361,0.475921631
4761.702625,-0.064468384,1.297714233,0.348876953
4771.380625,-0.035385132,1.298431396,0.215087891
4781.049625,0.060165405,1.253097534,0.051437378
4790.733625,0.155151367,1.190246582,-0.193649292
4800.412625,0.217681885,1.148300171,-0.449279785
4810.061625,0.332290649,1.233581543,-0.55456543
4819.768625,0.465438843,1.345016479,-0.510162354
4829.444625,0.564056396,1.423980713,-0.410446167
4839.116625,0.594924927,1.427947998,-0.349777222
4848.798625,0.51210022,1.451171875,-0.371734619
4858.476625,0.356506348,1.453857422,-0.535354614
4868.154625,0.28805542,1.341430664,-0.534942627
4877.832625,0.2940979,1.216964722,-0.523498535
4887.509625,0.3253479,1.134277344,-0.362792969
4897.188625,0.240356445,1.088729858,-0.159469604
4906.867625,0.201705933,0.995773315,-0.034957886
4916.517625,0.177780151,0.99987793,-0.000762939
4926.220625,0.150863647,0.990783691,-0.070556641
4935.898625,0.117462158,0.941238403,-0.153503418
4945.569625,0.074645996,0.93800354,-0.215194702
4955.252625,0.011917114,0.919692993,-0.24508667
4964.924625,-0.038696289,0.891601563,-0.194458008
4974.600625,-0.060577393,0.850204468,-0.190689087
4984.284625,-0.013305664,0.82270813,-0.257247925
4993.962625,0.087265015,0.769699097,-0.250228882
5003.633625,0.17338562,0.724761963,-0.251998901
5013.318625,0.301254272,0.624450684,-0.244888306
5022.995625,0.378662109,0.496154785,-0.188812256
5032.673625,0.430633545,0.388198853,-0.10256958
5042.350625,0.453826904,0.274734497,-0.06690979
5052.027625,0.454574585,0.169113159,-0.053253174
5061.704625,0.44468689,0.105834961,-0.038757324
5071.384625,0.408660889,0.109680176,-0.006668091
5081.037625,0.356201172,0.161712646,0.044113159
5090.722625,0.329086304,0.217056274,0.106323242
5100.421625,0.305282593,0.268157959,0.128875732
5110.098625,0.282989502,0.335403442,0.137466431
5119.780625,0.255233765,0.456039429,0.194229126
5129.433625,0.263656616,0.621200562,0.309448242
5139.110625,0.273254395,0.808914185,0.439987183
5148.819625,0.272979736,1.040054321,0.633911133
5158.489625,0.218032837,1.330734253,0.759963989
5168.160625,0.122817993,1.662872314,0.680099487
5177.791625,-0.000549316,2.015106201,0.726867676
5187.471625,-0.098373413,2.319717407,0.912033081
5197.141625,-0.138336182,2.376846313,1.068130493
5206.829625,-0.131286621,2.059890747,0.908737183
5216.504625,-0.070953369,1.607955933,0.577087402
5226.189625,0.063369751,1.181991577,0.421401978
5235.867625,0.137191772,0.785171509,0.270126343
5245.523625,0.150131226,0.464248657,0.18031311
5255.215625,0.170913696,0.312698364,0.229141235
5264.884625,0.181686401,0.407531738,0.315414429
5274.558625,0.179046631,0.566055298,0.334747314
5284.263625,0.121276855,0.649810791,0.223724365
5293.935625,0.062026978,0.747192383,-0.041061401
5303.617625,0.083679199,0.914855957,-0.315689087
5313.281625,0.177520752,1.081512451,-0.361999512
5322.958625,0.321746826,1.16847229,-0.190032959
5332.627625,0.471221924,1.210845947,-0.021240234
5342.332625,0.614456177,1.323455811,0.135818481
5352.009625,0.782699585,1.614089966,0.33013916
5361.678625,0.935256958,1.918548584,0.443237305
5371.335625,0.886901855,1.880981445,0.402801514
5381.042625,0.62928772,1.387680054,0.320144653
5390.719625,0.47958374,0.949935913,0.284622192
5400.394625,0.343261719,0.703872681,0.135864258
5410.071625,0.182418823,0.591888428,-0.231063843
5419.749625,0.030838013,0.586090088,-0.580596924
5429.428625,0.009735107,0.561264038,-0.717987061
5439.083625,0.037826538,0.643463135,-0.716125488
5448.784625,0.100769043,0.669708252,-0.652648926
5458.461625,0.151489258,0.731918335,-0.696166992
5468.132625,0.150222778,0.891052246,-0.646194458
5477.815625,0.158691406,1.038574219,-0.536102295
5487.494625,0.164291382,1.142868042,-0.452972412
5497.158625,0.177734375,1.221786499,-0.370223999
5506.850625,0.199264526,1.25378418,-0.285797119
5516.526625,0.198852539,1.184631348,-0.205612183
5526.190625,0.18649292,1.098480225,-0.098709106
5535.883625,0.210174561,1.091217041,0.006973267
5545.559625,0.223770142,1.085784912,0.120117188
5555.237625,0.219268799,0.966491699,0.326034546
5564.915625,0.260665894,0.821899414,0.463394165
5574.578625,0.311431885,0.746826172,0.390014648
5584.270625,0.360214233,0.769546509,0.222412109
5593.945625,0.364501953,0.834075928,0.067810059
5603.604625,0.360214233,0.884887695,-0.078155518
5613.298625,0.340698242,0.926986694,-0.237350464
5622.972625,0.30871582,0.912017822,-0.376495361
5632.626625,0.30418396,0.857543945,-0.423522949
5642.332625,0.334274292,0.78314209,-0.378433228
5652.010625,0.339599609,0.73449707,-0.296279907
5661.678625,0.297714233,0.741897583,-0.227127075
5671.365625,0.229705811,0.784957886,-0.176422119
5681.042625,0.187713623,0.849990845,-0.113693237
5690.701625,0.167633057,0.932022095,-0.075592041
5700.398625,0.130783081,0.990478516,-0.060821533
5710.076625,0.100891113,1.003311157,-0.039230347
5719.752625,0.084686279,0.996704102,0.000457764
5729.429625,0.061904907,0.995346069,0.038085938
5739.106625,0.035232544,0.993423462,0.062210083
5748.757625,0.024124146,0.990280151,0.081359863
5758.431625,0.040023804,0.985687256,0.088180542
5768.124625,0.077438354,1.000488281,0.071380615
5777.794625,0.092956543,1.040847778,0.03086853
5787.478625,0.078033447,1.083847046,-0.029312134
5797.167625,0.059967041,1.142532349,-0.094802856
5806.836625,0.048950195,1.240280151,-0.159561157
5816.514625,0.04133606,1.304962158,-0.182495117
5826.195625,0.025192261,1.323867798,-0.178161621
5835.887625,0.01008606,1.314575195,-0.16708374
5845.566625,0.025741577,1.30078125,-0.160202026
5855.243625,0.067077637,1.322479248,-0.156326294
5864.921625,0.119842529,1.349517822,-0.132125854
5874.599625,0.136398315,1.326690674,-0.07321167
5884.277625,0.110366821,1.285797119,0.0052948
5893.955625,0.057357788,1.265625,0.063873291
5903.606625,0.023239136,1.275466919,0.094085693
5913.308625,0.008987427,1.306350708,0.098068237
5922.987625,0.013626099,1.346908569,0.088256836
5932.644625,0.033493042,1.407653809,0.079742432
5942.341625,0.050720215,1.439804077,0.099258423
5952.020625,0.088165283,1.371826172,0.154785156
5961.694625,0.173065186,1.163162231,0.25289917
5971.375625,0.260223389,1.013885498,0.348983765
5981.054625,0.317337036,0.946990967,0.40776062
5990.725625,0.336151123,0.936706543,0.427459717
6000.409625,0.339324951,0.947067261,0.379974365
6010.085625,0.364303589,0.934829712,0.210586548
6019.763625,0.42980957,0.969558716,-0.050064087
6029.415625,0.510452271,1.075897217,-0.265045166
6039.118625,0.550201416,1.19833374,-0.437454224
6048.795625,0.551879883,1.334701538,-0.616241455
6058.471625,0.492874146,1.407867432,-0.682937622
6068.142625,0.392303467,1.399597168,-0.787734985
6077.825625,0.388778687,1.458831787,-0.876617432
6087.504625,0.31628418,1.476287842,-0.747024536
6097.164625,0.28175354,1.410858154,-0.273025513
6106.861625,0.260559082,1.298187256,0.088424683
6116.539625,0.317901611,1.207931519,0.32649231
6126.209625,0.350753784,1.112808228,0.354675293
6135.894625,0.341766357,0.997573853,0.261825562
6145.572625,0.312988281,0.93560791,-0.014221191
6155.229625,0.276184082,0.881790161,-0.164123535
6164.844542,0.250137329,0.860549927,-0.23475647
6174.503542,0.188781738,0.826461792,-0.216140747
6184.199542,0.122756958,0.80027771,-0.190689087
6193.877542,0.088973999,0.795013428,-0.142990112
6203.526542,0.114868164,0.77772522,-0.152633667
6213.234542,0.147766113,0.710327148,-0.200378418
6222.904542,0.179412842,0.609451294,-0.207000732
6232.579542,0.245788574,0.499420166,-0.195068359
6242.198542,0.317932129,0.352081299,-0.188323975
6251.876542,0.365112305,0.229949951,-0.181930542
6261.523542,0.404647827,0.147445679,-0.141357422
6271.227542,0.400588989,0.064712524,-0.103256226
6280.903542,0.341720581,0.011535645,-0.085754395
6290.577542,0.272384644,0.01725769,-0.058456421
6300.261542,0.208206177,0.053192139,-0.010528564
6309.937542,0.138717651,0.122375488,0.043334961
6319.598542,0.028930664,0.278915405,0.108261108
6329.293542,-0.083007813,0.461303711,0.216369629
6338.946542,-0.130325317,0.602020264,0.416030884
6348.644542,-0.096481323,0.743103027,0.688461304
6358.325542,0.041748047,0.934753418,0.878356934
6367.989542,0.194793701,1.123123169,0.847686768
6377.680542,0.302047729,1.432861328,0.918960571
6387.362542,0.346328735,1.910827637,1.048690796
6397.023542,0.364074707,2.553466797,1.334640503
6406.693542,0.385635376,2.966308594,1.229812622
6416.381542,0.375015259,2.587402344,0.710754395
6426.075542,0.338638306,1.836257935,0.333129883
6435.737542,0.312759399,1.160934448,0.233673096
6445.432542,0.286209106,0.669418335,0.363357544
6455.096542,0.279830933,0.324737549,0.495681763
6464.787542,0.307922363,0.12197876,0.573455811
6474.464542,0.330383301,0.101013184,0.522979736
6484.118542,0.274169922,0.228973389,0.270233154
6493.817542,0.207702637,0.481582642,-0.108444214
6503.494542,0.214370728,0.903457642,-0.452377319
6513.158542,0.310134888,1.347290039,-0.495361328
6522.847542,0.479278564,1.598526001,-0.337234497
6532.526542,0.659011841,1.821533203,-0.282974243
6542.204542,0.809555054,2.06427002,-0.316497803
6551.882542,0.807327271,2.129623413,-0.352020264
6561.542542,0.545501709,1.635940552,-0.240036011
6571.238542,0.346847534,0.963760376,-0.146209717
6580.915542,0.155807495,0.671813965,-0.150177002
6590.564542,0.023605347,0.560592651,-0.15637207
6600.271542,-0.043701172,0.419113159,-0.316802979
6609.943542,0.001403809,0.331756592,-0.45274353
6619.616542,0.095062256,0.417617798,-0.486450195
6629.306542,0.200210571,0.618118286,-0.418334961
6638.984542,0.223556519,0.800338745,-0.426971436
6648.653542,0.264190674,0.964904785,-0.388183594
6658.340542,0.297485352,1.118469238,-0.323013306
6668.019542,0.301605225,1.23638916,-0.285491943
6677.695542,0.308334351,1.316162109,-0.229736328
6687.366542,0.289764404,1.314727783,-0.121780396
6697.053542,0.223464966,1.24005127,0.028900146
6706.732542,0.16746521,1.10899353,0.225830078
6716.411542,0.10824585,0.958343506,0.471481323
6726.090542,0.04788208,0.84173584,0.6302948
6735.770542,0.016616821,0.80557251,0.484954834
6745.447542,0.090530396,0.85508728,0.243347168
6755.115542,0.115097046,0.884490967,0.035644531
6764.804542,0.12588501,0.916702271,-0.108093262
6774.483542,0.167694092,0.946609497,-0.234054565
6784.137542,0.216308594,0.993988037,-0.349075317
6793.841542,0.267364502,0.950088501,-0.412109375
6803.520542,0.316574097,0.87612915,-0.396224976
6813.186542,0.363174438,0.769180298,-0.335800171
6822.877542,0.394515991,0.671875,-0.300506592
6832.554542,0.44543457,0.649856567,-0.256332397
6842.212542,0.420501709,0.639465332,-0.185211182
6851.886542,0.350280762,0.676300049,-0.131820679
6861.590542,0.304336548,0.744415283,-0.114761353
6871.272542,0.293777466,0.857772827,-0.119918823
6880.930542,0.294418335,0.94178772,-0.127243042
6890.613542,0.278182983,0.984909058,-0.118835449
6900.288542,0.246124268,1.00112915,-0.081466675
6909.969542,0.199966431,1.016204834,-0.030822754
6919.635542,0.167190552,1.041870117,0.030426025
6929.342542,0.115524292,1.073120117,0.095245361
6939.019542,0.068649292,1.106460571,0.14781189
6948.679542,0.03692627,1.142944336,0.174362183
6958.374542,0.007980347,1.182952881,0.164031982
6968.051542,-0.021636963,1.217498779,0.128921509
6977.723542,-0.049850464,1.26701355,0.069549561
6987.408542,-0.085113525,1.332443237,-0.001953125
6997.086542,-0.119094849,1.370300293,-0.069763184
7006.765542,-0.12387085,1.376846313,-0.118667603
7016.436542,-0.085510254,1.357818604,-0.18321228
7026.111542,-0.003997803,1.313110352,-0.22567749
7035.799542,0.116424561,1.235946655,-0.194702148
7045.480542,0.208618164,1.203948975,-0.105255127
7055.133542,0.245391846,1.232788086,-0.005447388
7064.839542,0.222183228,1.225738525,0.090530396
7074.518542,0.183914185,1.184234619,0.176773071
7084.187542,0.170257568,1.155593872,0.274841309
7093.860542,0.160369873,1.137664795,0.398010254
7103.553542,0.137893677,1.129882813,0.534088135
7113.223542,0.100524902,1.12399292,0.628494263
7122.910542,0.043380737,1.147506714,0.614700317
7132.588542,0.007110596,1.215209961,0.485092163
7142.258542,-0.005508423,1.294921875,0.278717041
7151.945542,-0.004364014,1.348052979,-0.05847168
7161.609542,0.068054199,1.319519043,-0.548751831
7171.301542,0.180938721,1.29095459,-0.820648193
7180.981542,0.309310913,1.349807739,-0.734649658
7190.657542,0.476776123,1.493865967,-0.567611694
7200.338542,0.611968994,1.625930786,-0.443359375
7210.016542,0.730300903,1.68132019,-0.302001953
7219.684542,0.742218018,1.574203491,-0.213531494
7229.376542,0.621139526,1.429519653,-0.183654785
7239.057542,0.421310425,1.300308228,-0.175918579
7248.708542,0.378341675,1.086029053,-0.053436279
7258.414542,0.377304077,0.944595337,-0.041381836
7268.094542,0.347991943,0.910308838,-0.157699585
7277.765542,0.320159912,0.838882446,-0.223556519
7287.433542,0.306243896,0.839553833,-0.156387329
7297.129542,0.266342163,0.845901489,-0.211791992
7306.809542,0.215866089,0.816375732,-0.089004517
7316.484542,0.139938354,0.821731567,-0.093444824
7326.163542,0.036010742,0.852157593,-0.102844238
7335.839542,-0.0675354,0.859451294,-0.106155396
7345.508542,-0.095352173,0.799285889,-0.098587036
7355.199542,-0.051376343,0.747421265,-0.128890991
7364.860542,0.018508911,0.729110718,-0.181167603
7374.540542,0.142974854,0.664550781,-0.116912842
7384.234542,0.238800049,0.603805542,-0.104873657
7393.914542,0.315185547,0.543548584,-0.109283447
7403.592542,0.378936768,0.487808228,-0.099182129
7413.260542,0.429931641,0.437759399,-0.084503174
7422.932542,0.420806885,0.37322998,-0.109313965
7432.628542,0.41796875,0.318405151,-0.105133057
7442.299542,0.37361145,0.259185791,-0.074951172
7451.984542,0.309448242,0.227676392,-0.0493927
7461.663542,0.259353638,0.240814209,0.002731323
7471.340542,0.241333008,0.264450073,0.072235107
7481.017542,0.229873657,0.281555176,0.12689209
7490.694542,0.20892334,0.337905884,0.163223267
7500.354542,0.178955078,0.464752197,0.198562622
7510.049542,0.166351318,0.648422241,0.23487854
7519.703542,0.166610718,0.839141846,0.36315918
7529.404542,0.176803589,1.053771973,0.601455688
7539.082542,0.198577881,1.303421021,0.796127319
7548.738542,0.17729187,1.589385986,0.806930542
7558.436542,0.134536743,1.877792358,0.939117432
7568.111542,0.10067749,2.122772217,1.221191406
7577.773542,0.005508423,2.176589966,1.257675171
7587.465542,-0.122528076,1.935974121,0.921112061
7597.140542,-0.136047363,1.600280762,0.604782104
7606.821542,-0.024688721,1.234176636,0.438262939
7616.498542,0.093322754,0.843032837,0.254653931
7626.176542,0.203414917,0.565109253,0.2472229
7635.853542,0.320648193,0.521011353,0.378356934
7645.531542,0.411209106,0.644714355,0.530181885
7655.201542,0.381271362,0.727355957,0.55368042
7664.885542,0.336273193,0.803070068,0.311096191
7674.562542,0.283798218,0.952194214,-0.009643555
7684.222542,0.303390503,1.186981201,-0.234619141
7693.916542,0.440689087,1.373153687,-0.180618286
7703.570542,0.538116455,1.425796509,-0.068878174
7713.264542,0.624954224,1.462219238,0.022872925
7722.949542,0.712966919,1.574783325,0.055908203
7732.627542,0.709259033,1.6456604,-0.01776123
7742.300542,0.538330078,1.49369812,-0.040328979
7751.971542,0.345306396,1.077880859,0.001419067
7761.662542,0.260009766,0.746582031,-0.062942505
7771.340542,0.257019043,0.545959473,-0.231399536
7781.016542,0.193374634,0.510162354,-0.473937988
7790.668542,0.162643433,0.545501709,-0.611862183
7800.372542,0.173492432,0.575866699,-0.632781982
7810.046542,0.153625488,0.648208618,-0.595733643
7819.702542,0.153167725,0.727478027,-0.620819092
7829.394542,0.142547607,0.792251587,-0.693023682
7839.082542,0.127349854,0.908676147,-0.599411011
7848.742542,0.131973267,1.005615234,-0.454177856
7858.421542,0.135650635,1.104766846,-0.351745605
7868.098542,0.137435913,1.186920166,-0.275436401
7877.781542,0.144302368,1.184570313,-0.194519043
7887.454542,0.142929077,1.196243286,-0.04624939
7897.147542,0.163467407,1.235351563,0.137954712
7906.810542,0.150009155,1.211990356,0.320236206
7916.502542,0.123092651,1.128952026,0.507492065
7926.180542,0.074966431,0.968826294,0.52494812
7935.857542,0.134750366,0.920349121,0.299667358
7945.535542,0.233825684,0.956970215,0.110824585
7955.197542,0.293502808,0.941314697,0.00012207
7964.889542,0.293304443,0.901702881,-0.060699463
7974.567542,0.284103394,0.873809814,-0.121185303
7984.241542,0.281890869,0.861022949,-0.219314575
7993.924542,0.27734375,0.822937012,-0.303741455
8003.603542,0.353302002,0.78692627,-0.326858521
8013.253542,0.453094482,0.730270386,-0.300979614
8022.960542,0.548339844,0.675476074,-0.250366211
8032.639542,0.598861694,0.665359497,-0.202850342
8042.309542,0.544647217,0.682479858,-0.171569824
8051.996542,0.425582886,0.741409302,-0.165252686
8061.674542,0.29335022,0.836227417,-0.14491272
8071.352542,0.185348511,0.929855347,-0.113189697
8081.030542,0.10887146,0.997787476,-0.080688477
8090.711542,0.04359436,1.026092529,-0.034072876
8100.388542,0.014328003,1.04624939,0.020568848
8110.067542,0.003234863,1.053512573,0.066452026
8119.739542,0.005325317,1.041549683,0.104446411
8129.425542,0.023162842,1.034469604,0.124420166
8139.103542,0.073257446,1.060287476,0.130783081
8148.762542,0.133865356,1.112564087,0.10975647
8158.435542,0.169448853,1.153518677,0.062286377
8168.137542,0.160949707,1.190582275,-0.010253906
8177.815542,0.123855591,1.25718689,-0.078186035
8187.495542,0.086776733,1.299133301,-0.112457275
8197.173542,0.051605225,1.286712646,-0.130157471
8206.844542,0.040054321,1.244308472,-0.151184082
8216.528542,0.058242798,1.211975098,-0.157669067
8226.196542,0.109619141,1.246826172,-0.13293457
8235.870542,0.151977539,1.315719604,-0.094177246
8245.542542,0.152984619,1.359481812,-0.067565918
8255.237542,0.115036011,1.338348389,-0.052841187
8264.917542,0.054122925,1.297576904,-0.032562256
8274.595542,0.010757446,1.285003662,0.019119263
8284.258542,0.008377075,1.280731201,0.111190796
8293.947542,0.030426025,1.27456665,0.210418701
8303.632542,0.023529053,1.27003479,0.280929565
8313.281542,-0.012405396,1.225021362,0.313491821
8322.963542,-0.03288269,1.155059814,0.304702759
8332.650542,-0.001647949,1.115264893,0.258132935
8342.320542,0.078994751,1.088668823,0.209899902
8352.022542,0.175415039,1.097640991,0.154190063
8361.682542,0.271087646,1.142440796,0.034606934
8371.362542,0.361022949,1.149520874,-0.208572388
8381.040542,0.482162476,1.169921875,-0.340835571
8390.717542,0.5806427,1.256988525,-0.311172485
8400.396542,0.673095703,1.336334229,-0.265533447
8410.091542,0.717544556,1.400238037,-0.286087036
8419.757542,0.711746216,1.405426025,-0.31262207
8429.447542,0.672286987,1.308654785,-0.337493896
8439.125542,0.541213989,1.224685669,-0.428344727
8448.779542,0.339889526,1.217269897,-0.603210449
8458.481542,0.421264648,1.106048584,-0.459655762
8468.159542,0.443740845,1.131195068,-0.375915527
8477.811542,0.376174927,1.051315308,-0.156570435
8487.517542,0.293899536,0.965057373,0.260818481
8497.194542,0.22505188,0.879211426,0.274719238
8506.864542,0.147293091,0.825271606,0.093719482
8516.528542,0.02734375,0.788345337,-0.124145508
8526.226542,-0.021621704,0.767486572,-0.209014893
8535.904542,-0.055511475,0.781036377,-0.214523315
8545.582542,-0.082458496,0.830078125,-0.230545044
8555.260542,-0.110946655,0.879013062,-0.203887939
8564.934542,-0.082351685,0.844085693,-0.129150391
8574.617542,0.026931763,0.756835938,-0.099731445
8584.294542,0.139862061,0.651046753,-0.110351563
8593.971542,0.229156494,0.550445557,-0.126281738
8603.648542,0.299362183,0.479934692,-0.162033081
8613.299542,0.386657715,0.466094971,-0.151809692
8623.003542,0.429336548,0.375350952,-0.096847534
8632.681542,0.434432983,0.260299683,-0.095596313
8642.342542,0.388015747,0.194885254,-0.114547729
8652.036542,0.312133789,0.181686401,-0.087600708
8661.714542,0.245239258,0.206085205,-0.01776123
8671.378542,0.201629639,0.243850708,0.065353394
8681.068542,0.177719116,0.29486084,0.14465332
8690.724542,0.159332275,0.373184204,0.227432251
8700.422542,0.098083496,0.479187012,0.295288086
8710.098542,0.03503418,0.639709473,0.409912109
8719.775542,0.002105713,0.849746704,0.713684082
8729.453542,0.003967285,1.149261475,0.836242676
8739.131542,0.065887451,1.501586914,0.906524658
8748.798542,0.162139893,1.919754028,1.057159424
8758.485542,0.209701538,2.313339233,1.239349365
8768.164542,0.181304932,2.477081299,1.234619141
8777.813542,0.063156128,2.182861328,0.828689575
8787.518542,0.074783325,1.713317871,0.462677002
8797.188542,0.208877563,1.251434326,0.309692383
8806.858542,0.345916748,0.862609863,0.295272827
8816.546542,0.438598633,0.616775513,0.356216431
8826.218542,0.446243286,0.49041748,0.443618774
8835.897542,0.410308838,0.503631592,0.494827271
8845.559542,0.321777344,0.558197021,0.377212524
8855.235542,0.248016357,0.696517944,0.138504028
8864.914542,0.254928589,0.889953613,-0.050460815
8874.594542,0.344619751,1.109817505,-0.138748169
8884.265542,0.475387573,1.291397095,-0.138565063
8893.967542,0.572479248,1.334121704,-0.129959106
8903.647542,0.656921387,1.377838135,-0.164031982
8913.318542,0.747268677,1.510101318,-0.219909668
8922.977542,0.755081177,1.605819702,-0.28288269
8932.680542,0.60848999,1.425674438,-0.301025391
8942.331542,0.436645508,0.99861145,-0.273681641
8952.036542,0.287765503,0.757720947,-0.286117554
8961.713542,0.173049927,0.652175903,-0.351409912
8971.384542,0.094650269,0.548248291,-0.51940918
8981.068542,0.099243164,0.511993408,-0.561737061
8990.747542,0.142532349,0.55241394,-0.533447266
9000.425542,0.170059204,0.681564331,-0.496032715
9010.103542,0.17388916,0.775405884,-0.455200195
9019.781542,0.175354004,0.891876221,-0.405593872
9029.460542,0.18661499,0.998672485,-0.351654053
9039.136542,0.189117432,1.076828003,-0.282913208
9048.816542,0.190505981,1.198623657,-0.2421875
9058.494542,0.194290161,1.311309814,-0.219116211
9068.173542,0.21194458,1.361038208,-0.11491394
9077.839542,0.197067261,1.305587769,0.106704712
9087.530542,0.166748047,1.166397095,0.398880005
9097.209542,0.141067505,1.007659912,0.62902832
9106.883542,0.103607178,0.877883911,0.596847534
9116.565542,0.101196289,0.8387146,0.305404663
9126.243542,0.16003418,0.893768311,0.052520752
9135.914542,0.195709229,0.906021118,-0.093002319
9145.600542,0.206176758,0.891662598,-0.181976318
9155.279542,0.209259033,0.88609314,-0.244171143
9164.958542,0.192138672,0.895629883,-0.328292847
9174.609542,0.176147461,0.872879028,-0.399353027
9184.313542,0.184616089,0.83631897,-0.428207397
9193.991542,0.241363525,0.784423828,-0.378234863
9203.670542,0.286026001,0.715362549,-0.320053101
9213.337542,0.335159302,0.696228027,-0.270843506
9223.026542,0.371612549,0.712203979,-0.183624268
9232.705542,0.356582642,0.71862793,-0.080627441
9242.358542,0.321182251,0.780380249,-0.01651001
9252.062542,0.259140015,0.857696533,0.002975464
9261.740542,0.186386108,0.926452637,-0.006958008
9271.410542,0.135940552,0.980438232,-0.021896362
9281.089542,0.082504272,1.011611938,-0.020690918
9290.760542,0.052032471,1.034713745,0.001235962
9300.428542,0.039550781,1.055053711,0.036346436
9310.131542,0.025756836,1.068862915,0.080001831
9319.805542,0.011535645,1.085403442,0.12336731
9329.486542,0.006286621,1.126373291,0.142211914
9339.161542,-0.001693726,1.174118042,0.118118286
9348.834542,-0.020263672,1.245651245,0.048522949
9358.520542,-0.04447937,1.336761475,-0.052597046
9368.182542,-0.062484741,1.416442871,-0.130508423
9377.873542,-0.074142456,1.423583984,-0.207901001
9387.538542,-0.056472778,1.349563599,-0.242126465
9397.219542,0.009933472,1.234130859,-0.223770142
9406.906542,0.124908447,1.120620728,-0.134460449
9416.576542,0.221115112,1.103302002,-0.034484863
9426.270542,0.28994751,1.171768188,0.054641724
9435.935542,0.302810669,1.239318848,0.130020142
9445.628542,0.265594482,1.249176025,0.18586731
9455.306542,0.216629028,1.234390259,0.224060059
9464.983542,0.193511963,1.208938599,0.273727417
9474.662542,0.176315308,1.179412842,0.350143433
9484.332542,0.142929077,1.16065979,0.431915283
9494.018542,0.058486938,1.161026001,0.452575684
9503.697542,-0.010498047,1.163208008,0.399627686
9513.354542,-0.049636841,1.170623779,0.28062439
9523.054542,-0.055938721,1.227508545,0.123291016
9532.733542,-0.031860352,1.199905396,-0.097244263
9542.407542,0.026855469,1.163528442,-0.351882935
9552.090542,0.125854492,1.193618774,-0.475494385
9561.769542,0.264511108,1.272232056,-0.45513916
9571.437542,0.460845947,1.446731567,-0.382461548
9581.119542,0.594100952,1.598587036,-0.291107178
9590.805542,0.660415649,1.656570435,-0.250610352
9600.475542,0.671218872,1.556488037,-0.205078125
9610.159542,0.579498291,1.382888794,-0.192611694
9619.839542,0.396682739,1.297470093,-0.244522095
9629.517542,0.254241943,1.151580811,-0.376556396
9639.197542,0.327926636,1.024963379,-0.359603882
9648.877542,0.330596924,1.079803467,-0.333236694
9658.554542,0.317077637,0.971664429,-0.270721436
9668.236542,0.333084106,0.957977295,-0.177047729
9677.905542,0.333999634,0.929977417,0.021911621
9687.592542,0.288665771,0.867919922,-0.013183594
9697.270542,0.220443726,0.814453125,-0.090835571
9706.927542,0.162811279,0.773971558,-0.06477356
9716.565542,0.108718872,0.78024292,-0.147689819
9726.243542,0.054931641,0.81111145,-0.205673218
9735.902542,0.0206604,0.803771973,-0.190368652
9745.601542,0.045288086,0.772399902,-0.143661499
9755.279542,0.107833862,0.725799561,-0.142684937
9764.955542,0.172821045,0.667663574,-0.119476318
9774.634542,0.233917236,0.589324951,-0.088378906
9784.312542,0.310638428,0.495193481,-0.064224243
9793.981542,0.376144409,0.412414551,-0.051712036
9803.668542,0.426101685,0.326034546,-0.048400879
9813.346542,0.4402771,0.262817383,-0.060913086
9823.025542,0.411376953,0.233337402,-0.062652588
9832.699542,0.367630005,0.227035522,-0.048782349
9842.384542,0.328125,0.249359131,-0.034515381
9852.063542,0.307571411,0.270629883,0.009277344
9861.742542,0.288619995,0.290145874,0.056335449
9871.401542,0.24899292,0.335571289,0.085723877
9881.100542,0.189193726,0.421859741,0.119750977
9890.749542,0.132492065,0.537628174,0.167419434
9900.444542,0.056945801,0.69380188,0.323440552
9910.136542,0.014251709,0.899658203,0.616958618
9919.802542,0.041671753,1.173416138,0.817092896
9929.465542,0.074859619,1.590682983,0.995285034
9939.146542,0.123519897,2.166503906,1.261627197
9948.828542,0.157180786,2.639816284,1.560287476
9958.532542,0.118728638,2.662506104,1.28175354
9968.191542,0.059829712,2.131561279,0.693222046
9977.871542,0.179702759,1.565155029,0.398696899
9987.565542,0.325973511,1.124908447,0.280792236
9997.229542,0.38494873,0.744338989,0.219161987
10006.90954,0.355148315,0.470184326,0.251235962
10016.60454,0.288650513,0.349594116,0.364532471
10026.28354,0.199325562,0.420562744,0.4037323
10035.94754,0.105407715,0.558502197,0.229370117
10045.63954,-0.03414917,0.699050903,-0.063400269
10055.31854,-0.116287231,0.875961304,-0.300460815
10064.97454,-0.016555786,1.07383728,-0.241531372
10074.67754,0.202438354,1.24546814,-0.038452148
10084.35654,0.408798218,1.363616943,0.042526245
10094.01654,0.576568604,1.444961548,0.009719849
10103.71454,0.703887939,1.660995483,-0.041351318
10113.39354,0.78062439,1.911849976,-0.095504761
10123.06654,0.67515564,1.890228271,-0.083557129
10132.75154,0.428421021,1.343887329,-0.021606445
10142.43154,0.321228027,0.857681274,-0.028778076
10152.10854,0.274017334,0.608352661,-0.191802979
10161.78654,0.143829346,0.598098755,-0.353744507
10171.44954,0.104736328,0.493545532,-0.461151123
10181.14454,0.159347534,0.461761475,-0.450912476
10190.82254,0.177536011,0.5206604,-0.396835327
10200.47254,0.178207397,0.574356079,-0.351776123
10210.18054,0.192077637,0.648605347,-0.293487549
10219.85954,0.218093872,0.81288147,-0.321533203
10229.52454,0.251068115,0.98475647,-0.344696045
10239.19954,0.280761719,1.12852478,-0.319412231
10248.89754,0.279785156,1.223922729,-0.312667847
10258.56854,0.284042358,1.239013672,-0.289260864
10268.25654,0.262664795,1.18057251,-0.261947632
10277.93754,0.228973389,1.140289307,-0.206588745
10287.61854,0.20942688,1.123596191,-0.136154175
10297.29754,0.174911499,1.064407349,-0.038879395
10306.94854,0.116638184,0.945037842,0.170425415
10316.65554,0.072311401,0.85848999,0.389907837
10326.33554,0.08404541,0.824813843,0.454528809
10336.00054,0.124984741,0.83480835,0.335525513
10345.69454,0.154663086,0.88772583,0.161529541
10355.37354,0.16317749,0.926101685,0.015792847
10365.05354,0.176467896,0.930496216,-0.109771729
10374.73554,0.181655884,0.909927368,-0.2134552
10384.41554,0.200958252,0.886474609,-0.286270142
10394.07554,0.256866455,0.867004395,-0.311141968
10403.77654,0.3150177,0.81690979,-0.284698486
10413.45454,0.363235474,0.777832031,-0.238052368
10423.12954,0.383377075,0.749603271,-0.188659668
10432.81554,0.369949341,0.740585327,-0.138702393
10442.47654,0.340942383,0.758834839,-0.100723267
10452.15054,0.31098938,0.816009521,-0.081588745
10461.82454,0.259719849,0.903442383,-0.077362061
10471.52454,0.194839478,0.997543335,-0.077667236
10481.18854,0.159988403,1.07623291,-0.077011108
10490.88954,0.122909546,1.120559692,-0.060440063
10500.54154,0.07232666,1.107940674,-0.016738892
10510.23154,0.028594971,1.056289673,0.055099487
10519.91154,-0.003890991,1.039291382,0.126541138
10529.60454,-0.027389526,1.058624268,0.183990479
10539.27054,-0.037307739,1.104904175,0.197280884
10548.96554,-0.055480957,1.193450928,0.137878418
10558.62654,-0.076766968,1.316726685,0.01852417
10568.31954,-0.084503174,1.385757446,-0.110107422
10578.00154,-0.072463989,1.396438599,-0.228027344
10587.67454,-0.034088135,1.361816406,-0.315795898
10597.36154,0.044723511,1.314483643,-0.366760254
10607.04154,0.177490234,1.261962891,-0.334197998
10616.72354,0.286270142,1.222183228,-0.192550659
10626.40354,0.303634644,1.196594238,-0.022567749
10636.08054,0.227050781,1.17477417,0.124420166
10645.75454,0.147644043,1.167205811,0.224884033
10655.43954,0.083404541,1.186080933,0.292709351
10665.11154,0.052703857,1.21055603,0.335189819
10674.79354,0.027526855,1.227523804,0.363311768
10684.47154,-0.019805908,1.254302979,0.353225708
10694.12454,-0.059814453,1.277587891,0.29145813
10703.81054,-0.055084229,1.277267456,0.195281982
10713.48454,0.002426147,1.271362305,0.081176758
10723.16854,0.108459473,1.226715088,-0.029037476
10732.86254,0.209030151,1.178222656,-0.151077271
10742.54354,0.323425293,1.135635376,-0.305496216
10752.22354,0.44593811,1.113388062,-0.407730103
10761.90354,0.555145264,1.211669922,-0.378372192
10771.57854,0.663146973,1.34135437,-0.28012085
10781.26254,0.745376587,1.477966309,-0.220428467
10790.94154,0.775405884,1.480880737,-0.20715332
10800.60054,0.704574585,1.380111694,-0.183837891
10810.29854,0.531158447,1.243331909,-0.226074219
10819.97854,0.336990356,1.140014648,-0.44442749
10829.65554,0.307754517,1.093688965,-0.426086426
10839.33454,0.30116272,0.968002319,-0.476089478
10848.99854,0.262680054,0.963119507,-0.347854614
10858.66654,0.196563721,0.944793701,0.02482605
10868.34954,0.161651611,0.918777466,0.077545166
10878.04954,0.107574463,0.886505127,-0.116836548
10887.72154,0.016555786,0.863998413,-0.07258606
10897.40854,-0.035385132,0.825790405,-0.04296875
10907.08854,-0.034423828,0.854248047,-0.142669678
10916.76954,-0.018234253,0.883300781,-0.16027832
10926.45054,-0.000915527,0.877502441,-0.143356323
10936.13054,0.057723999,0.811676025,-0.140808105
10945.80854,0.134994507,0.748016357,-0.172622681
10955.48154,0.187026978,0.699249268,-0.142150879
10965.15154,0.248733521,0.65184021,-0.122970581
10974.85054,0.301269531,0.597839355,-0.11050415
10984.52354,0.33505249,0.55670166,-0.056350708
10994.20454,0.353317261,0.469665527,-0.055526733
11003.86754,0.368423462,0.423461914,-0.020751953
11013.54754,0.367553711,0.37059021,-0.003616333
11023.22654,0.336502075,0.338378906,-0.003631592
11032.90654,0.292877197,0.322662354,0.021011353
11042.60254,0.251861572,0.32913208,0.098709106
11052.25954,0.243789673,0.341003418,0.18132019
11061.96054,0.253662109,0.335906982,0.25151062
11071.63954,0.249450684,0.334701538,0.287109375
11081.31854,0.236923218,0.36265564,0.304916382
11090.99754,0.212600708,0.43447876,0.304748535
11100.67654,0.191345215,0.529571533,0.344726563
11110.35554,0.182525635,0.681060791,0.469360352
11120.03554,0.201950073,0.954986572,0.590133667
11129.70254,0.218490601,1.390945435,0.646118164
11139.39254,0.189086914,1.951278687,0.780593872
11149.07054,0.17578125,2.518920898,1.007995605
11158.72554,0.129119873,2.809143066,1.138900757
11168.35112,0.075134277,2.501327515,0.933792114
11178.02512,0.090423584,1.870376587,0.638946533
11187.70012,0.127685547,1.310668945,0.471466064
11197.38912,0.10395813,0.804122925,0.353775024
11207.06713,0.090667725,0.439529419,0.313858032
11216.74612,0.109634399,0.289749146,0.343338013
11226.42412,0.137313843,0.366470337,0.384567261
11236.10212,0.115478516,0.494445801,0.318832397
11245.77912,0.02532959,0.616333008,0.07119751
11255.44912,-0.027862549,0.822235107,-0.287506104
11265.13712,-0.009262085,1.079315186,-0.447418213
11274.81612,0.14642334,1.245849609,-0.27116394
11284.49513,0.301467896,1.283843994,-0.062240601
11294.15912,0.431106567,1.333297729,0.020980835
11303.85612,0.556289673,1.521072388,0.070877075
11313.53312,0.667236328,1.783126831,0.128326416
11323.18712,0.668243408,1.914855957,0.162872314
11332.89212,0.513793945,1.573150635,0.202072144
11342.57112,0.376419067,1.071273804,0.200057983
11352.24212,0.324234009,0.756622314,0.132217407
11361.92912,0.242111206,0.574707031,-0.04788208
11371.60912,0.154129028,0.497634888,-0.320404053
11381.28012,0.137878418,0.471115112,-0.516189575
11390.96613,0.133789063,0.466125488,-0.579879761
11400.64412,0.182052612,0.534194946,-0.589157104
11410.32313,0.233261108,0.659729004,-0.525161743
11420.00212,0.295654297,0.785308838,-0.514877319
11429.67413,0.343673706,0.906845093,-0.494735718
11439.36112,0.409408569,1.052047729,-0.425445557
11449.04113,0.446548462,1.178375244,-0.397171021
11458.69612,0.448928833,1.264633179,-0.356445313
11468.69613,0.403396606,1.23085022,-0.28855896
11478.33513,0.338943481,1.169326782,-0.21711731
11488.01412,0.303695679,1.134307861,-0.128707886
11497.67212,0.236862183,1.065948486,-0.039932251
11507.37512,0.148834229,0.961196899,0.122421265
11517.05012,0.051589966,0.890914917,0.334213257
11526.72513,-0.017532349,0.869430542,0.478912354
11536.41112,-0.037704468,0.875732422,0.447647095
11546.09113,0.00668335,0.915939331,0.288406372
11555.76113,0.051727295,0.965682983,0.124938965
11565.45112,0.087982178,0.987060547,-0.022201538
11575.13112,0.10848999,0.976669312,-0.131576538
11584.79713,0.125564575,0.932342529,-0.221466064
11594.49013,0.162597656,0.872634888,-0.270889282
11604.16812,0.206176758,0.812988281,-0.255599976
11613.84812,0.258071899,0.757019043,-0.22366333
11623.51812,0.290527344,0.720489502,-0.195556641
11633.19913,0.305450439,0.723403931,-0.165908813
11642.87612,0.290786743,0.758865356,-0.151473999
11652.55113,0.261993408,0.824081421,-0.15802002
11662.23513,0.225646973,0.880966187,-0.159912109
11671.91012,0.187454224,0.922821045,-0.145324707
11681.59112,0.160720825,0.955047607,-0.119934082
11691.27512,0.118515015,0.993408203,-0.078277588
11700.96612,0.076904297,1.037643433,-0.021530151
11710.64312,0.057220459,1.078903198,0.060028076
11720.29912,0.046813965,1.13053894,0.143768311
11730.00113,0.039505005,1.181915283,0.231964111
11739.68113,0.037277222,1.219619751,0.295166016
11749.36112,0.0234375,1.276184082,0.295639038
11759.03713,0.00440979,1.348861694,0.224990845
11768.71612,-0.008346558,1.382751465,0.101760864
11778.39312,-0.003967285,1.351226807,-0.035446167
11788.07313,0.017623901,1.28263855,-0.141555786
11797.75112,0.074859619,1.19090271,-0.223876953
11807.43112,0.162597656,1.11390686,-0.262954712
11817.11112,0.215499878,1.117858887,-0.237121582
11826.77412,0.229919434,1.210067749,-0.167480469
11836.46812,0.195373535,1.280776978,-0.083267212
11846.14212,0.168365479,1.272628784,0.0128479
11855.80112,0.147338867,1.229827881,0.136611938
11865.50512,0.131591797,1.204025269,0.280639648
11875.18512,0.124237061,1.174636841,0.440216064
11884.85612,0.089950562,1.146911621,0.578109741
11894.54312,0.034286499,1.150619507,0.640197754
11904.22012,-0.024520874,1.188552856,0.581817627
11913.90013,-0.056442261,1.253036499,0.392349243
11923.57512,-0.031234741,1.319107056,0.146179199
11933.25712,0.038162231,1.284469604,-0.105987549
11942.93813,0.123443604,1.202255249,-0.220169067
11952.61713,0.193847656,1.169082642,-0.300201416
11962.29512,0.320968628,1.193344116,-0.310195923
11971.97512,0.459701538,1.28515625,-0.339889526
11981.65413,0.564941406,1.399551392,-0.319610596
11991.32412,0.65222168,1.458557129,-0.293533325
12001.01312,0.674133301,1.369674683,-0.301834106
12010.69412,0.555938721,1.283233643,-0.409240723
12020.36812,0.401977539,1.254730225,-0.49156189
12030.05312,0.353561401,1.194152832,-0.522445679
12039.73312,0.41494751,1.106445313,-0.348709106
12049.40913,0.418502808,1.044403076,-0.16506958
12059.07312,0.391265869,0.987304688,0.132141113
12068.77212,0.329788208,0.97442627,0.188873291
12078.45012,0.246276855,0.959579468,-0.011367798
12088.12612,0.171951294,0.940567017,-0.052856445
12097.80013,0.058990479,0.964080811,-0.044876099
12107.47113,-0.043502808,0.994537354,-0.127868652
12117.15912,-0.092391968,0.98815918,-0.131790161
12126.81613,-0.126983643,0.896606445,-0.055511475
12136.50412,-0.076751709,0.797912598,-0.079772949
12146.20312,0.027816772,0.746459961,-0.168746948
12155.87512,0.143569946,0.681350708,-0.142913818
12165.56212,0.233261108,0.605987549,-0.084335327
12175.23613,0.335266113,0.530731201,-0.03314209
12184.91212,0.419448853,0.46232605,0.006149292
12194.60113,0.482803345,0.395706177,0.031402588
12204.27812,0.489944458,0.3306427,0.016067505
12213.95713,0.440734863,0.28527832,-0.02192688
12223.63612,0.372131348,0.275543213,-0.03944397
12233.31412,0.308547974,0.282653809,-0.033554077
12242.99413,0.248046875,0.297409058,-0.008529663
12252.67413,0.194198608,0.321731567,0.036956787
12262.35112,0.169616699,0.34526062,0.076660156
12272.03112,0.145065308,0.361053467,0.097961426
12281.71013,0.107208252,0.39024353,0.123458862
12291.37313,0.061096191,0.460998535,0.179000854
12301.06012,0.021499634,0.589477539,0.276626587
12310.74512,0.006332397,0.784317017,0.4818573
12320.39613,0.050765991,1.104721069,0.705886841
12330.10213,0.132644653,1.579711914,0.921920776
12339.78112,0.168136597,2.181503296,1.018249512
12349.45212,0.18157959,2.617889404,1.082366943
12359.13913,0.178848267,2.572158813,1.125274658
12368.81712,0.131530762,2.110809326,0.95223999
12378.47013,0.166915894,1.639877319,0.61618042
12388.10913,0.254776001,1.2631073,0.374755859
12397.78712,0.333450317,0.921905518,0.233215332
12407.45712,0.40687561,0.66885376,0.185577393
12417.14413,0.463867188,0.53338623,0.228927612
12426.79413,0.422012329,0.469177246,0.285293579
12436.50013,0.337234497,0.498291016,0.235900879
12446.17812,0.223983765,0.569747925,0.068359375
12455.85712,0.097610474,0.675354004,-0.082611084
12465.53613,0.018051147,0.825653076,-0.094039917
12475.21412,0.094284058,1.0390625,0.063369751
12484.88712,0.273284912,1.252349854,0.224029541
12494.57113,0.462677002,1.43812561,0.22895813
12504.24413,0.611877441,1.577529907,0.169937134
12513.92112,0.678909302,1.773254395,0.115081787
12523.61212,0.615905762,1.847732544,0.031204224
12533.28913,0.354660034,1.470474243,-0.002197266
12542.96213,0.186889648,0.978820801,-0.05178833
12552.64613,0.119216919,0.678726196,-0.161300659
12562.32212,0.057754517,0.545227051,-0.29800415
12571.99913,0.011795044,0.504608154,-0.417358398
12581.68812,0.064331055,0.45375061,-0.441482544
12591.34912,0.111755371,0.494155884,-0.443862915
12601.03812,0.115402222,0.548049927,-0.434265137
12610.71512,0.149291992,0.650695801,-0.452514648
12620.38212,0.21685791,0.79838562,-0.445922852
12630.05312,0.294952393,0.908004761,-0.380584717
12639.74512,0.321044922,1.081954956,-0.322418213
12649.42312,0.350372314,1.206863403,-0.289276123
12659.10512,0.352966309,1.280609131,-0.277618408
12668.78412,0.314178467,1.281417847,-0.2631073
12678.47213,0.277130127,1.259140015,-0.194396973
12688.16012,0.230102539,1.195632935,-0.08996582
12697.84112,0.17388916,1.11946106,0.029281616
12707.50512,0.122436523,1.029129028,0.181106567
12717.20013,0.066116333,0.947998047,0.313552856
12726.88012,0.030593872,0.893066406,0.385864258
12736.55912,0.024337769,0.877426147,0.338195801
12746.24012,0.06829834,0.924743652,0.226730347
12755.91913,0.118728638,0.957901001,0.105911255
12765.59812,0.146057129,0.962615967,-0.00138855
12775.27712,0.173171997,0.941848755,-0.074737549
12784.94912,0.222564697,0.907516479,-0.096008301
12794.63612,0.304519653,0.868438721,-0.09072876
12804.31612,0.353347778,0.822357178,-0.075027466
12813.97013,0.373886108,0.773956299,-0.067703247
12823.67712,0.378692627,0.741699219,-0.084716797
12833.35112,0.367034912,0.733398438,-0.143569946
12843.01112,0.370056152,0.743545532,-0.22164917
12852.71712,0.342422485,0.77722168,-0.284011841
12862.39612,0.256408691,0.871963501,-0.316436768
12872.06712,0.179412842,0.957839966,-0.286804199
12881.75412,0.132339478,1.009155273,-0.194488525
12891.43312,0.063217163,1.046035767,-0.090133667
12901.11313,0.006195068,1.064666748,0.013153076
12910.79413,-0.050430298,1.061416626,0.131668091
12920.47412,-0.078063965,1.062255859,0.248504639
12930.15512,-0.080886841,1.104782104,0.329727173
12939.83512,-0.068572998,1.199401855,0.335662842
12949.50113,-0.059387207,1.329666138,0.2525177
12959.19413,-0.046737671,1.413223267,0.109588623
12968.87412,0.003326416,1.444259644,-0.029037476
12978.55113,0.088760376,1.435760498,-0.119064331
12988.23313,0.167205811,1.350158691,-0.15612793
12997.91212,0.251373291,1.238464355,-0.099243164
13007.59112,0.323989868,1.206115723,-0.001739502
13017.27212,0.324630737,1.250991821,0.083770752
13026.95013,0.268890381,1.297607422,0.13117981
13036.62612,0.186523438,1.286117554,0.150115967
13046.30613,0.108917236,1.26776123,0.163864136
13055.98312,0.019760132,1.267700195,0.16973877
13065.64913,-0.039733887,1.272125244,0.178451538
13075.34013,-0.088088989,1.272247314,0.199707031
13085.02012,-0.150192261,1.268203735,0.211929321
13094.67712,-0.197891235,1.259521484,0.183258057
13104.36713,-0.188171387,1.24822998,0.12437439
13114.03312,-0.090087891,1.182189941,0.050537109
13123.72412,0.062927246,1.083343506,-0.008666992
13133.39712,0.216567993,1.09223938,-0.038574219
13143.06612,0.361434937,1.151596069,-0.071884155
13152.77312,0.496032715,1.217208862,-0.121124268
13162.45113,0.646408081,1.348083496,-0.187683105
13172.11912,0.748397827,1.455612183,-0.199386597
13181.78012,0.803512573,1.495056152,-0.219650269
13191.45313,0.746795654,1.42791748,-0.302383423
13201.16212,0.547271729,1.325241089,-0.456588745
13210.84212,0.388473511,1.182998657,-0.504150391
13220.52012,0.33303833,1.079940796,-0.591171265
13230.19712,0.256942749,1.093917847,-0.595184326
13239.87312,0.179367065,0.980819702,-0.404571533
13249.54813,0.136230469,0.943450928,0.057266235
13259.23312,0.118209839,0.901367188,0.238937378
13268.91213,0.106231689,0.890548706,0.143844604
13278.57012,0.072265625,0.886108398,0.090957642
13288.27012,0.028045654,0.866912842,-0.040969849
13297.95112,0.032241821,0.877471924,-0.147628784
13307.60312,0.035583496,0.881973267,-0.225616455
13317.30912,0.027893066,0.862533569,-0.125686646
13326.98912,0.041854858,0.794647217,-0.099105835
13336.66012,0.081726074,0.756118774,-0.146011353
13346.35013,0.143218994,0.708572388,-0.113647461
13356.02812,0.192047119,0.633041382,-0.085708618
13365.68313,0.275192261,0.56413269,-0.060073853
13375.38812,0.33493042,0.494216919,-0.033508301
13385.06512,0.38394165,0.418212891,0.019851685
13394.74312,0.398025513,0.328048706,0.007278442
13404.42512,0.388427734,0.291030884,0.008956909
13414.09812,0.342910767,0.275039673,0.003341675
13423.78212,0.301330566,0.274246216,0.004211426
13433.46012,0.266983032,0.300704956,0.030914307
13443.12112,0.251068115,0.324798584,0.085403442
13452.81812,0.255477905,0.34085083,0.151596069
13462.49613,0.258850098,0.354705811,0.209899902
13472.17212,0.235839844,0.374694824,0.250091553
13481.85312,0.202590942,0.416564941,0.281921387
13491.53213,0.164535522,0.49659729,0.338409424
13501.20413,0.105804443,0.641723633,0.509658813
13510.88912,0.09942627,0.878540039,0.716156006
13520.56813,0.12461853,1.223144531,0.765884399
13530.24712,0.143264771,1.677688599,0.860458374
13539.92213,0.165725708,2.248672485,1.090301514
13549.59612,0.143463135,2.79258728,1.279891968
13559.27012,0.121673584,2.767486572,1.085830688
13568.93613,0.183761597,2.089035034,0.627334595
13578.62312,0.312973022,1.507827759,0.365890503
13588.29812,0.431427002,1.085220337,0.248291016
13597.97712,0.484161377,0.726318359,0.234466553
13607.67112,0.462097168,0.48739624,0.321456909
13617.33713,0.347183228,0.382995605,0.406661987
13627.01612,0.170349121,0.451141357,0.32019043
13636.69912,0.026275635,0.610168457,0.088790894
13646.36812,-0.107681274,0.834091187,-0.124511719
13656.06513,-0.133666992,1.076171875,-0.182052612
13665.74612,0.01902771,1.258117676,-0.013931274
13675.42312,0.208679199,1.313491821,0.121124268
13685.09912,0.347640991,1.318359375,0.12210083
13694.77612,0.460098267,1.409072876,0.103439331
13704.45212,0.552200317,1.561828613,0.061126709
13714.11713,0.539352417,1.588638306,-0.025161743
13723.80512,0.399978638,1.332107544,-0.091674805
13733.48213,0.297149658,1.00553894,-0.11630249
13743.14012,0.255767822,0.772094727,-0.120742798
13752.83613,0.189117432,0.609481812,-0.207138062
13762.51412,0.135162354,0.532836914,-0.348129272
13772.16612,0.148849487,0.498901367,-0.414459229
13781.87012,0.17956543,0.477844238,-0.434173584
13791.54812,0.19631958,0.563018799,-0.490722656
13801.21212,0.252670288,0.652984619,-0.495223999
13810.90412,0.346389771,0.760360718,-0.442871094
13820.58312,0.399398804,0.904754639,-0.367141724
13830.26113,0.40663147,1.002151489,-0.368438721
13839.93812,0.433700562,1.123687744,-0.355636597
13849.61613,0.444534302,1.215774536,-0.31640625
13859.29412,0.416259766,1.237686157,-0.291931152
13868.97013,0.365921021,1.194320679,-0.222518921
13878.64512,0.329467773,1.156738281,-0.112121582
13888.32712,0.274337769,1.087463379,0.032424927
13898.00212,0.197219849,1.008209229,0.254928589
13907.68212,0.129714966,0.901046753,0.465164185
13917.36213,0.051681519,0.804412842,0.547927856
13927.04012,0.038238525,0.796966553,0.432632446
13936.71112,0.061645508,0.863876343,0.22996521
13946.39513,0.077774048,0.930786133,0.059844971
13956.07312,0.082244873,0.985488892,-0.091339111
13965.74312,0.086776733,1.029876709,-0.216888428
13975.43012,0.079147339,1.014877319,-0.323989868
13985.10912,0.080245972,0.951278687,-0.366973877
13994.78713,0.131668091,0.870925903,-0.314376831
14004.46512,0.186508179,0.802108765,-0.239303589
14014.13512,0.222106934,0.774353027,-0.195297241
14023.81612,0.255661011,0.796401978,-0.15977478
14033.50012,0.273498535,0.842147827,-0.138778687
14043.15812,0.270568848,0.898864746,-0.133850098
14052.85712,0.252151489,0.936798096,-0.12147522
14062.51612,0.21697998,0.952224731,-0.088485718
14072.20012,0.174041748,0.957794189,-0.043395996
14081.88613,0.122375488,0.967330933,0.033721924
14091.55012,0.054016113,0.9790802,0.130477905
14101.23212,0.012954712,0.989654541,0.230697632
14110.90512,-0.007263184,1.021484375,0.304489136
14120.58412,-0.006652832,1.097503662,0.308670044
14130.26212,-0.008178711,1.200958252,0.232284546
14139.95713,-0.02381897,1.289413452,0.093612671
14149.63412,-0.041519165,1.343582153,-0.058807373
14159.31213,-0.049301147,1.362808228,-0.179718018
14168.98912,-0.032287598,1.328948975,-0.266815186
14178.65513,0.024002075,1.25541687,-0.307769775
14188.34813,0.127807617,1.179702759,-0.298202515
14198.02512,0.233047485,1.1512146,-0.223251343
14207.67812,0.308547974,1.179885864,-0.12878418
14217.38112,0.329483032,1.221237183,-0.018798828
14227.05413,0.311264038,1.21434021,0.100158691
14236.71112,0.249053955,1.182128906,0.200836182
14246.41612,0.169387817,1.173461914,0.290466309
14256.09512,0.093475342,1.189300537,0.374389648
14265.76513,0.015441895,1.227508545,0.432342529
14275.45012,-0.049789429,1.262435913,0.457794189
14285.12813,-0.120910645,1.295318604,0.439437866
14294.80412,-0.18347168,1.322463989,0.374450684
14304.47912,-0.193267822,1.349655151,0.252593994
14314.15313,-0.143753052,1.333358765,0.0730896
14323.84112,-0.042831421,1.190231323,-0.135910034
14333.51913,0.064620972,1.084732056,-0.280609131
14343.17512,0.164154053,1.134658813,-0.35307312
14352.87512,0.32359314,1.276641846,-0.296813965
14362.55313,0.5418396,1.471878052,-0.232498169
14372.22813,0.721847534,1.608795166,-0.194503784
14381.91212,0.837844849,1.618911743,-0.205200195
14391.59013,0.793838501,1.482589722,-0.269821167
14401.25012,0.587097168,1.291717529,-0.451065063
14410.94712,0.443511963,1.126907349,-0.484954834
14420.62512,0.337661743,0.958984375,-0.504318237
14430.29112,0.276367188,0.871261597,-0.427078247
14439.98412,0.239700317,0.834991455,-0.267791748
14449.65512,0.207977295,0.917068481,-0.099899292
14459.34312,0.217987061,0.935852051,0.123947144
14469.02012,0.196014404,0.96257019,0.175125122
14478.67412,0.140029907,0.986541748,0.092910767
14488.34812,0.053634644,0.976074219,0.06980896
14498.05313,-0.012176514,0.963699341,0.050048828
14507.72613,-0.049591064,0.958999634,-0.106948853
14517.39813,-0.025466919,0.873062134,-0.202667236
14527.08913,0.041168213,0.757568359,-0.199050903
14536.75912,0.125930786,0.661834717,-0.152191162
14546.43213,0.173843384,0.580535889,-0.108428955
14556.13112,0.251068115,0.531036377,0.009780884
14565.78412,0.33984375,0.468429565,0.02154541
14575.47113,0.40423584,0.415710449,0.020141602
14585.16612,0.43939209,0.392364502,0.011764526
14594.84212,0.432159424,0.383605957,-0.001998901
14604.52012,0.385772705,0.370910645,-0.029327393
14614.19813,0.335891724,0.376586914,-0.025115967
14623.87812,0.293289185,0.386871338,-0.001464844
14633.55512,0.238723755,0.380065918,0.02406311
14643.22413,0.199829102,0.368759155,0.047470093
14652.91412,0.189025879,0.358322144,0.090667725
14662.59212,0.183029175,0.348449707,0.147369385
14672.24712,0.174789429,0.347717285,0.159179688
14681.94413,0.1587677,0.382034302,0.172088623
14691.62713,0.080093384,0.480712891,0.185775757
14701.28012,-0.026504517,0.68057251,0.329528809
14710.98612,-0.058853149,0.980209351,0.512573242
14720.66512,-0.041244507,1.341079712,0.676956177
14730.33812,0.006027222,1.874206543,0.921112061
14740.02312,0.078613281,2.435394287,1.325668335
14749.70212,0.116287231,2.751571655,1.521987915
14759.37412,0.131530762,2.46421814,1.07711792
14768.99412,0.212966919,1.864868164,0.62739563
14778.67113,0.315612793,1.371658325,0.457443237
14788.33412,0.411727905,0.984603882,0.345077515
14798.02712,0.45413208,0.687835693,0.293701172
14807.69613,0.467437744,0.523254395,0.323959351
14817.37913,0.423873901,0.485366821,0.38343811
14827.05512,0.344726563,0.549804688,0.381698608
14836.73013,0.214584351,0.65802002,0.200500488
14846.40512,0.11491394,0.826171875,-0.099472046
14856.08212,0.063278198,1.044235229,-0.236480713
14865.76112,0.177963257,1.23991394,-0.099945068
14875.43712,0.331665039,1.300170898,0.002960205
14885.11512,0.456085205,1.400314331,-0.006530762
14894.76412,0.593933105,1.649932861,-0.01133728
14904.46613,0.649459839,1.8046875,-0.05255127
14914.14312,0.501617432,1.66003418,-0.095916748
14923.80913,0.302307129,1.170715332,-0.109115601
14933.49812,0.227355957,0.820739746,-0.093093872
14943.17612,0.153442383,0.6590271,-0.24041748
14952.84712,0.050170898,0.580581665,-0.403305054
14962.53212,0.046020508,0.489440918,-0.466903687
14972.20712,0.087158203,0.445327759,-0.4921875
14981.88412,0.140472412,0.505447388,-0.485092163
14991.56213,0.185897827,0.610336304,-0.418838501
15001.23812,0.209411621,0.714309692,-0.347930908
15010.91512,0.190124512,0.824127197,-0.324539185
15020.59112,0.181045532,0.946533203,-0.324386597
15030.26212,0.206756592,1.107681274,-0.339782715
15039.94413,0.213607788,1.270294189,-0.335891724
15049.62212,0.212158203,1.349884033,-0.252883911
15059.28513,0.184616089,1.324508667,-0.131149292
15068.97712,0.168457031,1.242492676,-0.019287109
15078.65412,0.131347656,1.137542725,0.097518921
15088.32313,0.115219116,1.016296387,0.234466553
15098.00613,0.136993408,0.921112061,0.359741211
15107.68012,0.164367676,0.834838867,0.410644531
15117.35412,0.183609009,0.811904907,0.348480225
15127.03412,0.213851929,0.818893433,0.217300415
15136.69912,0.23890686,0.833724976,0.0831604
15146.37812,0.25038147,0.844223022,-0.042297363
15156.05713,0.25453186,0.836303711,-0.159164429
15165.73112,0.277893066,0.83392334,-0.246292114
15175.43213,0.261230469,0.813659668,-0.299453735
15185.11012,0.244094849,0.774047852,-0.333343506
15194.78313,0.258392334,0.735565186,-0.354705811
15204.46613,0.317092896,0.709381104,-0.334823608
15214.13913,0.388275146,0.711776733,-0.263946533
15223.79612,0.385192871,0.785705566,-0.152496338
15233.50313,0.323028564,0.89855957,-0.05267334
15243.18212,0.259841919,0.990570068,0.029556274
15252.85412,0.18598938,1.065582275,0.090744019
15262.53913,0.128204346,1.112350464,0.150543213
15272.21512,0.047988892,1.110137939,0.202941895
15281.89313,-0.011642456,1.075515747,0.248168945
15291.57212,-0.046966553,1.041641235,0.257873535
15301.24813,-0.04524231,1.035995483,0.217681885
15310.92712,-0.03175354,1.067886353,0.110015869
15320.60612,-0.034667969,1.129745483,-0.057495117
15330.28212,-0.049468994,1.200195313,-0.231613159
15339.96012,-0.044494629,1.298400879,-0.352920532
15349.63813,-0.021957397,1.383651733,-0.408676147
15359.30412,0.017608643,1.394088745,-0.394760132
15368.99712,0.076843262,1.323303223,-0.311233521
15378.67612,0.169799805,1.219299316,-0.145477295
15388.34413,0.245300293,1.19619751,0.015075684
15398.03212,0.302856445,1.232879639,0.133453369
15407.70812,0.298278809,1.265396118,0.216522217
15417.38113,0.240768433,1.288513184,0.269836426
15426.99813,0.167922974,1.317596436,0.294143677
15436.67313,0.083358765,1.329940796,0.308013916
15446.34012,0.002212524,1.318115234,0.307281494
15456.02812,-0.069763184,1.316589355,0.279632568
15465.69713,-0.13822937,1.312210083,0.217834473
15475.37412,-0.166763306,1.297866821,0.127853394
15485.05712,-0.138000488,1.280059814,0.012313843
15494.73413,-0.040328979,1.252426147,-0.090316772
15504.41012,0.129302979,1.158462524,-0.091781616
15514.08713,0.265731812,1.059860229,-0.078796387
15523.74612,0.384658813,1.019226074,-0.099472046
15533.44113,0.489471436,1.055343628,-0.153503418
15543.11812,0.59564209,1.137832642,-0.25189209
15552.76512,0.738006592,1.363296509,-0.281768799
15562.47112,0.847854614,1.520172119,-0.24887085
15572.14813,0.888015747,1.4949646,-0.255279541
15581.82213,0.798080444,1.386459351,-0.292297363
15591.50313,0.64225769,1.205612183,-0.343032837
15601.18212,0.551956177,1.08164978,-0.358612061
15610.83112,0.404159546,1.011077881,-0.555847168
15620.53813,0.329345703,1.013214111,-0.559188843
15630.21812,0.244766235,0.985458374,-0.308074951
15639.89213,0.102508545,0.928466797,0.094360352
15649.57212,-0.047439575,0.908935547,0.211837769
15659.22513,-0.145050049,0.988601685,0.12109375
15668.89912,-0.168380737,1.037445068,0.087478638
15678.60312,-0.138442993,1.020812988,-0.073913574
15688.26412,-0.106689453,0.955459595,-0.181564331
15697.94812,-0.039855957,0.863220215,-0.219741821
15707.62613,0.026809692,0.777572632,-0.246276855
15717.31212,0.108322144,0.714309692,-0.24887085
15726.98213,0.176147461,0.656661987,-0.187530518
15736.67712,0.188644409,0.60345459,-0.185501099
15746.35412,0.226882935,0.569610596,-0.089187622
15756.03412,0.294723511,0.526382446,0.008651733
15765.71312,0.337265015,0.465011597,0.003936768
15775.37912,0.375534058,0.411087036,0.000747681
15785.06912,0.400177002,0.38772583,0.009567261
15794.74613,0.375030518,0.35647583,-0.007843018
15804.42412,0.352340698,0.337738037,0.003158569
15814.10212,0.327209473,0.331497192,0.021087646
15823.76512,0.286743164,0.338439941,0.03616333
15833.45912,0.246109009,0.347412109,0.053955078
15843.13613,0.225784302,0.356323242,0.074478149
15852.78613,0.196884155,0.378051758,0.114151001
15862.49013,0.169250488,0.412811279,0.157196045
15872.16512,0.136245728,0.476654053,0.201202393
15881.83912,0.079971313,0.598052979,0.302902222
15891.52212,0.031021118,0.801269531,0.492218018
15901.19813,0.041137695,1.117507935,0.672988892
15910.86612,0.066833496,1.571609497,0.849578857
15920.55412,0.100387573,2.129058838,1.014480591
15930.23112,0.107498169,2.595108032,1.288116455
15939.90112,0.067657471,2.627822876,1.313400269
15949.58612,0.027282715,2.140869141,0.869735718
15959.26312,0.079605103,1.601318359,0.536346436
15968.94012,0.141708374,1.169082642,0.345077515
15978.61812,0.214859009,0.81640625,0.207351685
15988.29613,0.315383911,0.562088013,0.154586792
15997.96713,0.364471436,0.417114258,0.219665527
16007.65113,0.324142456,0.383972168,0.28956604
16017.32712,0.230545044,0.480102539,0.221878052
16027.00612,0.117019653,0.623519897,0.007385254
16036.68312,0.02281189,0.815322876,-0.189834595
16046.33412,0.000579834,1.067626953,-0.251937866
16056.04113,0.136856079,1.261917114,-0.066040039
16065.71912,0.288513184,1.332702637,0.072982788
16075.37712,0.417831421,1.353302002,0.078948975
16085.07312,0.544784546,1.542434692,0.065429688
16094.74813,0.672744751,1.828704834,0.031417847
16104.42812,0.689071655,1.949203491,-0.029098511
16114.07812,0.49395752,1.612335205,-0.028488159
16123.78313,0.342788696,1.156600952,0.024749756
16133.46212,0.274291992,0.816055298,-0.024627686
16143.13612,0.239456177,0.601043701,-0.148574829
16152.79512,0.172775269,0.542449951,-0.305511475
16162.47213,0.161209106,0.479049683,-0.403015137
16172.15413,0.163391113,0.415679932,-0.482391357
16181.7415,0.188583374,0.435134888,-0.494659424
16191.4245,0.256790161,0.532775879,-0.482116699
16201.1075,0.292495728,0.674484253,-0.504211426
16210.7815,0.300384521,0.830154419,-0.489028931
16220.4745,0.300521851,1.003265381,-0.459274292
16230.1515,0.310836792,1.150985718,-0.404251099
16239.8205,0.300643921,1.269256592,-0.363449097
16249.5045,0.282333374,1.305892944,-0.311828613
16259.1845,0.254714966,1.257049561,-0.201950073
16268.8635,0.20413208,1.183410645,-0.099380493
16278.5435,0.168395996,1.104995728,0.007949829
16288.2205,0.121459961,1.013336182,0.181808472
16297.8905,0.080490112,0.952865601,0.371795654
16307.5765,0.069290161,0.905227661,0.495895386
16317.2395,0.060150146,0.871841431,0.440689087
16326.9285,0.091094971,0.905990601,0.278594971
16336.6105,0.112182617,0.955047607,0.125228882
16346.2615,0.115081787,0.968780518,-0.001907349
16355.9675,0.116912842,0.970947266,-0.097351074
16365.6455,0.121994019,0.952911377,-0.176925659
16375.3135,0.133377075,0.915130615,-0.225067139
16385.0025,0.171081543,0.870437622,-0.245193481
16394.6825,0.216156006,0.820724487,-0.239501953
16404.3365,0.264556885,0.780838013,-0.222229004
16414.0375,0.296936035,0.783935547,-0.198471069
16423.7155,0.30255127,0.814468384,-0.156661987
16433.3925,0.280548096,0.842147827,-0.123321533
16443.0705,0.238876343,0.871734619,-0.099700928
16452.7385,0.208526611,0.90322876,-0.077362061
16462.4245,0.177124023,0.933944702,-0.055801392
16472.1015,0.15385437,0.969024658,-0.021759033
16481.7595,0.117126465,1.006347656,0.013046265
16491.4565,0.091430664,1.043457031,0.042800903
16501.1335,0.064163208,1.063140869,0.074768066
16510.7835,0.036376953,1.044281006,0.113067627
16520.4885,0.006896973,1.020233154,0.150360107
16530.1605,-0.018280029,1.0284729,0.171951294
16539.8355,-0.03352356,1.071289063,0.157287598
16549.5215,-0.051956177,1.130722046,0.101272583
16559.1995,-0.054000854,1.210662842,0.020080566
16568.8765,-0.047927856,1.2918396,-0.078659058
16578.5555,-0.027679443,1.319335938,-0.165084839
16588.2165,0.008987427,1.266433716,-0.238845825
16597.9105,0.072814941,1.160095215,-0.286239624
16607.5885,0.168304443,1.07232666,-0.305450439
16617.2525,0.250839233,1.078384399,-0.291900635
16626.9315,0.308868408,1.139358521,-0.249603271
16636.6055,0.31817627,1.183029175,-0.158111572
16646.2795,0.30506897,1.201553345,-0.04800415
16655.9805,0.271194458,1.230209351,0.08934021
16665.6425,0.197097778,1.284393311,0.245376587
16675.3295,0.117782593,1.344802856,0.36869812
16684.9975,0.008865356,1.376464844,0.436325073
16694.6775,-0.09312439,1.380691528,0.438110352
16704.3545,-0.154098511,1.379425049,0.368240356
16714.0485,-0.136444092,1.371810913,0.264953613
16723.7275,-0.059814453,1.30871582,0.168991089
16733.4015,0.068237305,1.176528931,0.116149902
16743.0835,0.183334351,1.06060791,0.077957153
16752.7615,0.297088623,1.021438599,0.026535034
16762.4385,0.424026489,1.021820068,-0.00932312
16772.1175,0.563446045,1.084945679,-0.110748291
16781.7785,0.675140381,1.208312988,-0.239730835
16791.4755,0.777740479,1.32460022,-0.321777344
16801.1535,0.852890015,1.453048706,-0.323364258
16810.8305,0.856491089,1.471511841,-0.314575195
16820.5125,0.689422607,1.377197266,-0.395248413
16830.1905,0.470748901,1.273590088,-0.466964722
16839.8525,0.342102051,1.191619873,-0.447784424
16849.5455,0.256134033,1.091247559,-0.457641602
16859.2245,0.141082764,1.070144653,-0.535842896
16868.9025,0.065841675,1.002426147,-0.125289917
16878.5805,-0.075744629,0.980285645,0.157043457
16888.2545,-0.153747559,0.967605591,0.215866089
16897.9355,-0.194473267,0.97543335,0.122955322
16907.6105,-0.179046631,0.942550659,0.023025513
16917.2625,-0.10546875,0.937301636,-0.18548584
16926.9675,-0.007553101,0.858474731,-0.224273682
16936.6395,0.068283081,0.755081177,-0.144561768
16946.2985,0.117034912,0.72277832,-0.183502197
16956.0015,0.164108276,0.727432251,-0.204925537
16965.6805,0.179534912,0.724838257,-0.198471069
16975.3315,0.192642212,0.739379883,-0.145172119
16985.0355,0.205780029,0.725997925,-0.068008423
16994.7145,0.219329834,0.666687012,-0.026199341
17004.3865,0.250366211,0.584152222,0.007781982
17014.0725,0.272293091,0.499816895,0.032180786
17023.7505,0.267288208,0.432479858,0.043838501
17033.4285,0.236495972,0.380249023,0.054840088
17043.1065,0.209060669,0.355010986,0.080444336
17052.7745,0.190841675,0.350952148,0.123626709
17062.4625,0.207214355,0.346817017,0.185852051
17072.1415,0.237045288,0.342498779,0.230667114
17081.8175,0.252029419,0.349502563,0.256347656
17091.4705,0.236572266,0.362426758,0.281417847
17101.1735,0.213027954,0.390594482,0.302703857
17110.8485,0.200698853,0.462753296,0.37487793
17120.5245,0.194458008,0.605926514,0.561203003
17130.2085,0.194198608,0.821640015,0.784698486
17139.8625,0.201812744,1.050994873,0.838272095
17149.5455,0.202758789,1.271881104,0.703460693
17159.2375,0.174133301,1.489074707,0.573638916
17168.8935,0.129806519,1.688644409,0.601501465
17178.5975,0.101501465,1.847839355,0.678131104
17188.2755,0.110137939,1.866989136,0.695617676
17197.9545,0.082290649,1.682678223,0.619888306
17207.6325,0.059082031,1.43963623,0.494430542
17217.2945,0.088104248,1.205184937,0.337890625
17226.9895,0.163787842,0.943267822,0.248840332
17236.6665,0.26020813,0.747787476,0.226409912
17246.3175,0.343154907,0.661712646,0.272796631
17256.0265,0.363708496,0.704330444,0.358322144
17265.7005,0.291046143,0.79598999,0.395294189
17275.3695,0.195037842,0.873504639,0.349990845
17285.0655,0.136779785,1.019180298,0.234313965
17294.7455,0.099136353,1.253997803,0.142303467
17304.4155,0.172729492,1.459075928,0.145736694
17314.1055,0.334381104,1.58265686,0.153915405
17323.7845,0.501693726,1.595016479,0.117645264
17333.4645,0.583953857,1.586578369,0.062713623
17343.1185,0.592636108,1.568206787,0.015075684
17352.8215,0.488220215,1.413833618,-0.030029297
17362.5015,0.305831909,1.080612183,-0.052871704
17372.1805,0.223953247,0.744338989,-0.031448364
17381.8465,0.199676514,0.537734985,-0.044784546
17391.5335,0.149002075,0.464141846,-0.179931641
17401.2195,0.072280884,0.448501587,-0.356201172
17410.8975,0.01991272,0.494155884,-0.64553833
17420.5775,0.01361084,0.588287354,-0.799819946
17430.2565,0.048492432,0.718856812,-0.91645813
17439.9085,0.142074585,0.854904175,-0.79335022
17449.6155,0.213226318,1.02305603,-0.536773682
17459.2945,0.258483887,1.112518311,-0.41217041
17468.9615,0.303833008,1.216964722,-0.327941895
17478.6535,0.322250366,1.275588989,-0.293609619
17488.3335,0.294876099,1.27142334,-0.264587402
17498.0115,0.285400391,1.28578186,-0.207992554
17507.6925,0.287353516,1.260742188,-0.10887146
17517.3715,0.248672485,1.206222534,0.008651733
17527.0515,0.17980957,1.110580444,0.261367798
17536.7155,0.144622803,0.987350464,0.524963379
17546.3955,0.14213562,0.890853882,0.619766235
17556.0695,0.131515503,0.806335449,0.47505188
17565.7725,0.188140869,0.82925415,0.257522583
17575.4485,0.233840942,0.890426636,0.079162598
17585.1115,0.228347778,0.905899048,-0.05229187
17594.7925,0.212921143,0.900177002,-0.139022827
17604.4635,0.193054199,0.893325806,-0.230560303
17614.1555,0.17628479,0.877685547,-0.311355591
17623.8345,0.177474976,0.864318848,-0.347015381
17633.5125,0.218643188,0.847137451,-0.33833313
17643.2095,0.26449585,0.817825317,-0.315048218
17652.8895,0.275695801,0.795074463,-0.281692505
17662.5675,0.262893677,0.778701782,-0.219741821
17672.2475,0.237609863,0.775192261,-0.142654419
17681.9265,0.221191406,0.799224854,-0.076202393
17691.6045,0.210800171,0.862976074,-0.038360596
17701.2825,0.183486938,0.927032471,-0.011001587
17710.9465,0.165084839,0.97454834,-0.005630493
17720.6415,0.139022827,1.010726929,-0.004699707
17730.3205,0.118774414,1.022369385,-0.004241943
17739.9995,0.111526489,1.013275146,-0.002502441
17749.6735,0.113876343,0.978820801,0.00718689
17759.3585,0.108810425,0.925216675,0.030532837
17769.0285,0.098770142,0.891220093,0.062286377
17778.7175,0.08416748,0.921218872,0.071960449
17788.3965,0.057327271,1.000427246,0.036636353
17798.0695,0.029403687,1.087280273,-0.047180176
17807.7545,0.001449585,1.177307129,-0.131240845
17817.4325,-0.022064209,1.285720825,-0.211349487
17827.1115,-0.051849365,1.379104614,-0.26411438
17836.7915,-0.080123901,1.382598877,-0.28024292
17846.4705,-0.071182251,1.29196167,-0.259872437
17856.1505,-0.003265381,1.166046143,-0.179275513
17865.8325,0.096725464,1.090438843,-0.069595337
17875.4965,0.176208496,1.103851318,0.005554199
17885.1935,0.209671021,1.154464722,0.041671753
17894.8725,0.222869873,1.189376831,0.044754028
17904.5265,0.190811157,1.217010498,0.051574707
17914.2335,0.153106689,1.26184082,0.077377319
17923.9115,0.099151611,1.304611206,0.128204346
17933.5835,0.054168701,1.323272705,0.182250977
17943.2695,0.01663208,1.332901001,0.235473633
17952.9205,-0.04335022,1.341400146,0.261322021
17962.6255,-0.101715088,1.334594727,0.265457153
17972.3055,-0.115219116,1.314483643,0.240234375
17981.9735,-0.0390625,1.264526367,0.20085144
17991.6665,0.096755981,1.148880005,0.154067993
18001.3215,0.207092285,1.072738647,0.129211426
18011.0095,0.319030762,1.035446167,0.086669922
18020.7055,0.432403564,1.040786743,0.02166748
18030.3855,0.518753052,1.084609985,-0.0909729
18040.0485,0.614334106,1.158981323,-0.211593628
18049.7455,0.740615845,1.294326782,-0.294265747
18059.4255,0.829925537,1.448684692,-0.305114746
18069.0765,0.833221436,1.528579712,-0.294815063
18078.7745,0.693450928,1.415084839,-0.332214355
18088.4615,0.546432495,1.284164429,-0.388961792
18098.1255,0.457794189,1.210647583,-0.399215698
18107.8055,0.313354492,1.187133789,-0.578216553
18117.4865,0.187347412,1.152191162,-0.592071533
18127.1725,0.152938843,1.142379761,-0.298171997
18136.8315,0.049163818,1.089981079,-0.02041626
18146.5365,0.000930786,1.044006348,0.24546814
18156.2195,-0.011367798,0.987625122,0.30027771
18165.8965,-0.03817749,0.949493408,0.165039063
18175.5465,-0.046661377,0.912948608,-0.032897949
18185.2575,-0.010177612,0.835464478,-0.270889282
18194.9355,0.067565918,0.748138428,-0.237884521
18204.5995,0.127792358,0.686325073,-0.155517578
18214.2125,0.158401489,0.67616272,-0.163391113
18223.8925,0.175872803,0.684692383,-0.135726929
18233.5655,0.186386108,0.678161621,-0.121490479
18243.2515,0.198684692,0.653747559,-0.111068726
18252.9255,0.248916626,0.608840942,-0.0990448
18262.6285,0.304916382,0.543624878,-0.084060669
18272.3075,0.348358154,0.477279663,-0.035995483
18281.9885,0.371643066,0.430664063,-0.017532349
18291.6505,0.34487915,0.380447388,-0.020568848
18301.3485,0.303329468,0.372833252,-0.037811279
18311.0295,0.255615234,0.385147095,-0.024261475
18320.7105,0.214538574,0.386566162,0.008666992
18330.3905,0.199203491,0.385177612,0.056610107
18340.0695,0.202957153,0.381118774,0.099822998
18349.7495,0.205764771,0.386398315,0.144515991
18359.4285,0.203704834,0.406326294,0.185775757
18369.1025,0.180175781,0.44821167,0.203948975
18378.7825,0.135498047,0.541702271,0.235656738
18388.4655,0.048583984,0.694473267,0.338165283
18398.1255,-0.022064209,0.93170166,0.537582397
18407.8275,-0.033615112,1.217208862,0.656494141
18417.5095,0.012664795,1.593704224,0.824264526
18427.1625,0.100524902,2.012405396,1.155960083
18436.8695,0.190429688,2.384796143,1.467147827
18446.5495,0.259994507,2.419174194,1.294845581
18456.2065,0.267913818,2.016296387,0.75390625
18466.2065,0.272842407,1.573638916,0.539611816
18475.8445,0.291564941,1.176956177,0.444473267
18485.5265,0.297790527,0.788925171,0.283706665
18495.2015,0.305847168,0.497772217,0.194534302
18504.8855,0.304550171,0.328536987,0.204360962
18514.5445,0.338134766,0.370544434,0.276473999
18524.2375,0.296951294,0.507110596,0.268615723
18533.9255,0.207504272,0.675445557,0.098983765
18543.6055,0.163787842,0.900482178,-0.176147461
18553.2855,0.117462158,1.158584595,-0.380554199
18562.9655,0.147766113,1.36491394,-0.316040039
18572.6455,0.263931274,1.403167725,-0.084075928
18582.3265,0.384979248,1.377120972,0.031204224
18592.0055,0.479507446,1.484893799,0.117492676
18601.6865,0.542312622,1.751754761,0.360229492
18611.3665,0.48487854,1.860015869,0.44303894
18621.0465,0.378952026,1.509780884,0.301010132
18630.7045,0.3465271,1.142852783,0.214355469
18640.3945,0.297134399,0.934448242,0.066207886
18650.0765,0.234344482,0.70072937,-0.16192627
18659.7435,0.160171509,0.61315918,-0.494812012
18669.4285,0.115524292,0.638931274,-0.632705688
18679.1085,0.096221924,0.574691772,-0.659759521
18688.7795,0.124450684,0.526489258,-0.703964233
18698.4515,0.205062866,0.589477539,-0.665145874
18708.1455,0.286148071,0.665313721,-0.611236572
18717.8025,0.312225342,0.75592041,-0.549438477
18727.4915,0.335906982,0.891937256,-0.438491821
18737.1805,0.357269287,1.003677368,-0.363708496
18746.8615,0.357086182,1.078826904,-0.329528809
18756.5275,0.35824585,1.129013062,-0.278533936
18766.1915,0.340393066,1.12789917,-0.204116821
18775.8995,0.286376953,1.077438354,-0.132354736
18785.5505,0.222213745,1.039779663,-0.082733154
18795.2545,0.183395386,1.033416748,-0.007324219
18804.9205,0.149398804,1.024932861,0.127487183
18814.6025,0.090255737,1.004165649,0.280456543
18824.2725,0.069015503,1.004837036,0.425613403
18833.9585,0.063156128,1.009109497,0.477050781
18843.6385,0.08253479,1.02935791,0.399505615
18853.3135,0.111602783,1.034667969,0.271865845
18862.9995,0.10949707,0.99041748,0.148025513
18872.6775,0.103118896,0.94883728,0.026367188
18882.3755,0.1146698,0.90222168,-0.082015991
18892.0545,0.136474609,0.861129761,-0.180664063
18901.7345,0.168121338,0.83454895,-0.272247314
18911.4145,0.178894043,0.833389282,-0.350448608
18921.0785,0.186401367,0.826797485,-0.408325195
18930.7465,0.211837769,0.795135498,-0.417572021
18940.4545,0.225372314,0.76222229,-0.377548218
18950.1355,0.216705322,0.786560059,-0.322479248
18959.7905,0.211395264,0.865997314,-0.26725769
18969.4965,0.203430176,0.948348999,-0.20526123
18979.1765,0.200180054,1.013305664,-0.131835938
18988.8485,0.18510437,1.04196167,-0.054214478
18998.5375,0.175292969,1.041748047,0.052429199
19008.2185,0.164596558,1.020309448,0.184829712
19017.8975,0.129669189,0.983093262,0.338531494
19027.5775,0.079208374,0.954910278,0.441085815
19037.2565,0.037734985,0.989471436,0.440704346
19046.9265,0.007537842,1.080993652,0.331222534
19056.6135,-0.023696899,1.157363892,0.166442871
19066.2815,-0.052383423,1.229614258,-0.019393921
19075.9695,-0.073486328,1.320205688,-0.194274902
19085.6495,-0.081008911,1.387985229,-0.348724365
19095.3035,-0.064941406,1.380584717,-0.442276001
19105.0105,-0.009368896,1.283569336,-0.458114624
19114.6895,0.117477417,1.166229248,-0.386459351
19124.3635,0.210144043,1.13092041,-0.261428833
19134.0465,0.274017334,1.153747559,-0.127670288
19143.7265,0.291671753,1.184661865,-0.002563477
19153.3985,0.277679443,1.195266724,0.125396729
19163.0855,0.225311279,1.21182251,0.247436523
19172.7645,0.15914917,1.252716064,0.336761475
19182.4435,0.066970825,1.288955688,0.367782593
19192.1215,-0.01600647,1.307952881,0.341964722
19201.7795,-0.093261719,1.305236816,0.282211304
19211.4805,-0.136245728,1.303634644,0.206192017
19221.1595,-0.125442505,1.293197632,0.130249023
19230.8375,-0.0519104,1.24899292,0.053878784
19240.5205,0.083969116,1.135925293,0.023193359
19250.1935,0.207977295,1.053451538,0.044204712
19259.8545,0.323760986,1.025741577,0.04498291
19269.5575,0.419830322,1.047409058,0.006484985
19279.2365,0.498031616,1.078231812,-0.080245972
19288.9065,0.593139648,1.162612915,-0.170822144
19298.5965,0.713165283,1.32194519,-0.238891602
19308.2745,0.80430603,1.481964111,-0.218994141
19317.9295,0.806518555,1.491622925,-0.229019165
19327.6035,0.675445557,1.369445801,-0.304138184
19337.3085,0.50920105,1.226013184,-0.400177002
19346.9655,0.402587891,1.151031494,-0.49772644
19356.6595,0.370544434,1.102310181,-0.575302124
19366.3325,0.29838562,1.098449707,-0.59362793
19376.0235,0.255020142,1.07321167,-0.249389648
19385.6895,0.142440796,1.019897461,0.101135254
19395.3795,0.035369873,1.003982544,0.193267822
19405.0495,0.008346558,0.984298706,0.124755859
19414.7265,0.010177612,0.952331543,0.054641724
19424.3945,0.002548218,0.933776855,-0.101531982
19434.1025,0.01852417,0.844482422,-0.10043335
19443.7815,0.058425903,0.739532471,-0.069061279
19453.4505,0.112991333,0.692611694,-0.137084961
19463.1385,0.159500122,0.675720215,-0.216674805
19472.8175,0.175369263,0.653030396,-0.198226929
19482.4965,0.181121826,0.61730957,-0.108139038
19492.1745,0.199035645,0.573562622,-0.071380615
19501.8535,0.238540649,0.536209106,-0.063476563
19511.5325,0.300186157,0.505905151,-0.024902344
19521.2085,0.347167969,0.462738037,-0.015472412
19530.8815,0.362106323,0.405593872,-0.03793335
19540.5655,0.339263916,0.367004395,-0.061309814
19550.2435,0.297058105,0.350860596,-0.058013916
19559.9165,0.252822876,0.340896606,-0.050231934
19569.5995,0.230529785,0.349456787,-0.024749756
19579.2775,0.228500366,0.37159729,0.01473999
19588.9455,0.211761475,0.39730835,0.054550171
19598.6325,0.184570313,0.428955078,0.095046997
19608.3095,0.162994385,0.472686768,0.132019043
19617.9805,0.079544067,0.580245972,0.184432983
19627.6645,0.000534058,0.751068115,0.320800781
19637.3265,-0.032989502,0.987472534,0.582977295
19647.0235,0.017150879,1.291442871,0.85218811
19656.7005,0.114059448,1.692138672,1.106399536
19666.3795,0.192214966,2.134597778,1.237365723
19676.0565,0.240539551,2.395202637,1.354995728
19685.7335,0.258880615,2.286102295,1.170501709
19695.4015,0.193328857,1.838165283,0.766494751
19705.0885,0.166534424,1.432739258,0.532089233
19714.7665,0.185394287,1.113677979,0.346221924
19724.4235,0.243560791,0.826782227,0.195541382
19734.0975,0.304473877,0.637130737,0.159912109
19743.8015,0.331680298,0.556167603,0.206573486
19753.4695,0.318161011,0.588302612,0.294631958
19763.1575,0.229751587,0.652435303,0.275543213
19772.8345,0.10244751,0.717803955,0.094558716
19782.5025,-0.019851685,0.807846069,-0.174468994
19792.1875,-0.043823242,0.962753296,-0.300598145
19801.8675,0.079666138,1.108566284,-0.162506104
19811.5455,0.22795105,1.229766846,-0.018707275
19821.1945,0.381027222,1.312194824,0.007827759
19830.9005,0.509918213,1.500106812,0.013076782
19840.5795,0.620681763,1.809158325,0.065582275
19850.2555,0.619476318,1.990249634,0.190002441
19859.9295,0.472457886,1.64666748,0.22328186
19869.6045,0.367370605,1.173324585,0.147109985
19879.2695,0.30607605,0.814163208,-0.003509521
19888.9435,0.251846313,0.603820801,-0.24786377
19898.6295,0.174331665,0.614151001,-0.433700562
19908.3075,0.164718628,0.519577026,-0.536956787
19917.9795,0.171615601,0.453140259,-0.607971191
19927.6645,0.224761963,0.488037109,-0.598373413
19937.3445,0.308776855,0.529647827,-0.494812012
19947.0385,0.365142822,0.639083862,-0.459106445
19956.7165,0.378555298,0.789779663,-0.391784668
19966.3945,0.362564087,0.936309814,-0.355804443
19976.0735,0.360427856,1.065856934,-0.354736328
19985.7525,0.366760254,1.212890625,-0.337432861
19995.4305,0.370910645,1.312484741,-0.274368286
20005.1075,0.326446533,1.286758423,-0.171554565
20014.7865,0.245681763,1.215393066,-0.07925415
20024.4415,0.165924072,1.12411499,0.032730103
20034.1455,0.103759766,1.030197144,0.214935303
20043.8215,0.049804688,0.941604614,0.420547485
20053.4915,0.039337158,0.876876831,0.529220581
20063.1785,0.044494629,0.84677124,0.451812744
20072.8565,0.069976807,0.889038086,0.264373779
20082.5285,0.087036133,0.948150635,0.075134277
20092.2125,0.091659546,0.978927612,-0.065582275
20101.8905,0.077438354,0.970046997,-0.180145264
20111.5675,0.069412231,0.935287476,-0.272674561
20121.2465,0.103515625,0.915817261,-0.322814941
20130.9255,0.155105591,0.885147095,-0.328598022
20140.5915,0.189285278,0.83404541,-0.301620483
20150.2855,0.239944458,0.787414551,-0.260864258
20159.9635,0.281692505,0.77130127,-0.222061157
20169.6415,0.310409546,0.788421631,-0.175109863
20179.3215,0.322158813,0.813049316,-0.124313354
20188.9925,0.310119629,0.853851318,-0.078765869
20198.6785,0.28465271,0.910110474,-0.046951294
20208.3575,0.237960815,0.938186646,-0.016387939
20218.0215,0.1796875,0.946624756,0.017456055
20227.7165,0.137359619,0.968215942,0.051757813
20237.3955,0.097198486,1.011245728,0.085662842
20247.0725,0.07131958,1.0597229,0.118774414
20256.7515,0.059906006,1.099075317,0.150085449
20266.4155,0.050384521,1.128341675,0.175323486
20276.1085,0.033355713,1.145568848,0.184204102
20285.7845,0.000991821,1.184768677,0.156448364
20295.4375,-0.033584595,1.277145386,0.071395874
20305.1395,-0.05305481,1.358963013,-0.030426025
20314.8185,-0.057357788,1.388504028,-0.112030029
20324.4915,-0.04750061,1.362121582,-0.175384521
20334.1755,-0.012756348,1.308914185,-0.218093872
20343.8385,0.055587769,1.258651733,-0.243621826
20353.5125,0.147033691,1.213638306,-0.232879639
20363.2115,0.205230713,1.175872803,-0.16784668
20372.8905,0.239089966,1.158706665,-0.089691162
20382.5595,0.230285645,1.175994873,-0.010238647
20392.2495,0.191055298,1.207839966,0.076568604
20401.9135,0.163833618,1.236495972,0.165100098
20411.6005,0.109786987,1.251449585,0.249008179
20421.2735,0.048187256,1.264816284,0.319564819
20430.9355,-0.014358521,1.284561157,0.353668213
20440.6205,-0.044570923,1.286758423,0.339279175
20450.3005,-0.00328064,1.279846191,0.283660889
20459.9815,0.083084106,1.212432861,0.209213257
20469.6695,0.163955688,1.095001221,0.103424072
20479.3365,0.220474243,1.004898071,-0.004669189
20489.0115,0.31590271,1.015136719,-0.073074341
20498.7105,0.409683228,1.077331543,-0.152954102
20508.3895,0.510620117,1.157318115,-0.252822876
20518.0625,0.585418701,1.238052368,-0.320907593
20527.7465,0.620147705,1.341629028,-0.351043701
20537.4255,0.573226929,1.348937988,-0.364349365
20547.0975,0.455184937,1.276107788,-0.424591064
20556.7835,0.323471069,1.281967163,-0.435684204
20566.4615,0.245132446,1.248947144,-0.370574951
20576.1395,0.181854248,1.163040161,-0.386245728
20585.8185,0.208099365,1.140975952,-0.281234741
20595.4865,0.273361206,1.127288818,-0.095565796
20605.1755,0.321151733,1.130874634,-0.082168579
20614.8465,0.363861084,1.060958862,0.035858154
20624.5205,0.328521729,0.9737854,0.074691772
20634.2095,0.270233154,0.903686523,-0.044235229
20643.8905,0.223403931,0.824615479,-0.084060669
20653.5625,0.174865723,0.778457642,-0.138961792
20663.2495,0.116943359,0.751800537,-0.166503906
20672.9285,0.078491211,0.727157593,-0.051452637
20682.5975,0.050750732,0.730392456,-0.064422607
20692.2845,0.035263062,0.738922119,-0.149032593
20701.9625,0.051345825,0.73135376,-0.136779785
20711.6425,0.109405518,0.708587646,-0.06640625
20721.3195,0.171539307,0.636108398,-0.05682373
20730.9995,0.237884521,0.556411743,-0.085647583
20740.6765,0.298522949,0.488586426,-0.096084595
20750.3325,0.330078125,0.431625366,-0.097213745
20760.0065,0.33531189,0.38192749,-0.100784302
20769.7125,0.306640625,0.355361938,-0.096237183
20779.3905,0.252151489,0.343658447,-0.063995361
20789.0545,0.217941284,0.343521118,-0.027145386
20798.7465,0.211380005,0.352905273,0.018722534
20808.4245,0.202865601,0.375686646,0.086502075
20818.0755,0.176895142,0.419387817,0.155212402
20827.7805,0.153182983,0.477279663,0.189483643
20837.4585,0.104034424,0.567474365,0.20161438
20847.1295,0.063201904,0.69821167,0.276229858
20856.8085,0.066070557,0.880569458,0.48274231
20866.4965,0.146499634,1.142868042,0.684082031
20876.1675,0.232162476,1.503982544,0.887741089
20885.8305,0.303604126,1.939926147,1.133605957
20895.5065,0.331756592,2.281600952,1.31918335
20905.2155,0.266937256,2.326629639,1.201538086
20914.8935,0.198242188,2.009811401,0.831390381
20924.5575,0.211990356,1.585769653,0.61088562
20934.2425,0.232803345,1.211349487,0.475341797
20943.9275,0.237213135,0.86579895,0.297653198
20953.6105,0.227432251,0.616271973,0.186706543
20963.2245,0.220565796,0.492599487,0.20904541
20972.8815,0.223999023,0.533538818,0.280059814
20982.5555,0.179138184,0.608764648,0.27130127
20992.2575,0.079681396,0.694793701,0.116790771
21001.9255,-0.018798828,0.826202393,-0.125045776
21011.6095,-0.060592651,1.022384644,-0.33531189
21021.2725,0.037261963,1.192779541,-0.250274658
21030.9585,0.207672119,1.281265259,-0.04737854
21040.6305,0.357391357,1.306762695,0.044754028
21050.3075,0.477478027,1.422714233,0.058120728
21059.9875,0.587646484,1.656356812,0.069213867
21069.6665,0.66418457,1.877441406,0.153091431
21079.3455,0.61239624,1.77230835,0.270462036
21089.0245,0.450775146,1.316390991,0.260528564
21098.7215,0.330352783,0.967132568,0.162109375
21108.3995,0.285522461,0.646453857,0.013565063
21118.0775,0.220657349,0.571960449,-0.23348999
21127.7575,0.132415771,0.52520752,-0.354431152
21137.4375,0.099884033,0.407836914,-0.469650269
21147.0995,0.11680603,0.42539978,-0.520339966
21156.7975,0.163864136,0.448028564,-0.464004517
21166.4775,0.214309692,0.576126099,-0.502197266
21176.1295,0.295288086,0.768661499,-0.52684021
21185.76275,0.322433472,0.951843262,-0.519927979
21195.44175,0.346923828,1.12387085,-0.475982666
21205.11275,0.38041687,1.276977539,-0.410934448
21214.80275,0.393737793,1.34085083,-0.307052612
21224.48175,0.331039429,1.278747559,-0.214050293
21234.16275,0.258010864,1.211257935,-0.138061523
21243.84275,0.194213867,1.145706177,-0.072158813
21253.52475,0.131225586,1.050308228,0.037124634
21263.20375,0.071060181,0.94380188,0.245178223
21272.88375,0.049713135,0.858718872,0.451034546
21282.53575,0.083206177,0.829299927,0.53237915
21292.23375,0.114181519,0.86416626,0.404953003
21301.92575,0.146408081,0.930969238,0.198364258
21311.58175,0.170547485,0.959793091,0.046310425
21321.28275,0.16809082,0.94682312,-0.080047607
21330.96275,0.159179688,0.904144287,-0.18347168
21340.61775,0.161300659,0.865814209,-0.27671814
21350.32375,0.164154053,0.849624634,-0.333724976
21360.00375,0.177764893,0.816864014,-0.376419067
21369.67575,0.20980835,0.768280029,-0.409088135
21379.36475,0.261734009,0.741027832,-0.400604248
21389.04375,0.291442871,0.741790771,-0.369842529
21398.72275,0.301086426,0.760574341,-0.312332153
21408.38475,0.291488647,0.815078735,-0.235488892
21418.08075,0.250488281,0.888549805,-0.154754639
21427.75975,0.19921875,0.946334839,-0.085540771
21437.44075,0.168838501,0.991226196,-0.032363892
21447.12075,0.13861084,1.030838013,0.038772583
21456.80075,0.10118103,1.073852539,0.117752075
21466.47975,0.069274902,1.113815308,0.199768066
21476.13275,0.047439575,1.131515503,0.28477478
21485.83775,0.028915405,1.135848999,0.347229004
21495.51475,0.010543823,1.139633179,0.351272583
21505.16875,-0.009124756,1.143722534,0.282531738
21514.87575,-0.031112671,1.177932739,0.144958496
21524.55375,-0.046508789,1.246948242,-0.014328003
21534.22275,-0.059188843,1.301116943,-0.156845093
21543.89375,-0.060134888,1.322280884,-0.277328491
21553.59475,-0.024505615,1.32069397,-0.366928101
21563.26175,0.053970337,1.316757202,-0.430038452
21572.93475,0.150680542,1.31086731,-0.464447021
21582.60975,0.219085693,1.270507813,-0.445068359
21592.30875,0.264678955,1.204803467,-0.342468262
21601.98375,0.256866455,1.186187744,-0.2056427
21611.66975,0.220962524,1.202850342,-0.07093811
21621.32875,0.178985596,1.239715576,0.063430786
21631.00875,0.13319397,1.288543701,0.182785034
21640.68375,0.058303833,1.354309082,0.273117065
21650.36975,-0.008041382,1.395889282,0.333465576
21660.04975,-0.05430603,1.396118164,0.368041992
21669.72975,-0.064956665,1.333816528,0.365310669
21679.42575,-0.022293091,1.21182251,0.355499268
21689.10475,0.072174072,1.064315796,0.359222412
21698.77675,0.162841797,0.968902588,0.37059021
21708.46275,0.208877563,0.921005249,0.380371094
21718.14075,0.255477905,0.891983032,0.402191162
21727.81975,0.294403076,0.913146973,0.3881073
21737.48575,0.326889038,0.972000122,0.308486938
21747.15975,0.364074707,1.036026001,0.106170654
21756.85375,0.427093506,1.09425354,-0.122055054
21766.53175,0.511810303,1.200866699,-0.284866333
21776.18175,0.532226563,1.350570679,-0.420410156
21785.88975,0.473419189,1.416870117,-0.604400635
21795.56875,0.415527344,1.397888184,-0.75227356
21805.22075,0.419433594,1.348861694,-0.809783936
21814.90875,0.412078857,1.375900269,-1.030456543
21824.60575,0.335037231,1.386474609,-0.707763672
21834.27675,0.237594604,1.300872803,-0.273117065
21843.96675,0.159561157,1.235473633,0.072158813
21853.64675,0.149536133,1.146469116,0.32460022
21863.32675,0.175643921,1.057754517,0.274002075
21873.00675,0.17074585,0.951950073,0.134307861
21882.68575,0.170043945,0.869400024,-0.03755188
21892.36575,0.176361084,0.778808594,-0.135421753
21902.04475,0.165588379,0.691253662,-0.072418213
21911.71075,0.135025024,0.661575317,-0.096328735
21921.40175,0.114776611,0.677658081,-0.169296265
21931.07975,0.098892212,0.725585938,-0.267303467
21940.73275,0.095474243,0.770645142,-0.306625366
21950.44075,0.127197266,0.76109314,-0.208007813
21960.12075,0.189285278,0.713317871,-0.127334595
21969.78675,0.284072876,0.617385864,-0.106216431
21979.48175,0.374908447,0.512954712,-0.094314575
21989.16075,0.435852051,0.429397583,-0.047576904
21998.83375,0.44442749,0.352218628,-0.024002075
22008.52175,0.419631958,0.30758667,0.007705688
22018.18575,0.368301392,0.256637573,0.013015747
22027.88175,0.307159424,0.229553223,0.022964478
22037.56075,0.266220093,0.230865479,0.044662476
22047.23875,0.259033203,0.245803833,0.080596924
22056.91875,0.250961304,0.274658203,0.104217529
22066.58675,0.230438232,0.319763184,0.11164856
22076.25875,0.176574707,0.414657593,0.114425659
22085.95975,0.09664917,0.554534912,0.187072754
22095.60875,0.00793457,0.748336792,0.36882019
22105.31375,-0.033126831,1.021911621,0.54826355
22114.99775,-0.014984131,1.411712646,0.695648193
22124.67575,0.057174683,1.922637939,0.909759521
22134.34075,0.157028198,2.418334961,1.294830322
22144.02375,0.176879883,2.64390564,1.468765259
22153.70375,0.190475464,2.3465271,1.070251465
22163.38275,0.189880371,1.85635376,0.665206909
22173.06275,0.184158325,1.439788818,0.483673096
22182.76075,0.229644775,1.027420044,0.334640503
22192.44175,0.272918701,0.673706055,0.258361816
22202.12075,0.278427124,0.435546875,0.301239014
22211.80175,0.262115479,0.373443604,0.396499634
22221.48375,0.205062866,0.441055298,0.423736572
22231.16475,0.141937256,0.549819946,0.256637573
22240.84275,0.055282593,0.687576294,-0.012802124
22250.52375,0.011489868,0.891784668,-0.248687744
22260.20375,0.068832397,1.154525757,-0.265670776
22269.86675,0.237289429,1.332977295,-0.074508667
22279.56575,0.401489258,1.492645264,-0.000778198
22289.24675,0.537628174,1.601959229,-0.006988525
22298.92175,0.640518188,1.76663208,0.000900269
22308.60675,0.664733887,1.874984741,0.018081665
22318.28675,0.512908936,1.707641602,0.080459595
22327.96575,0.369293213,1.223632813,0.109664917
22337.64375,0.302505493,0.842391968,0.063796997
22347.32175,0.269973755,0.572799683,-0.086715698
22357.00275,0.210464478,0.56048584,-0.2631073
22366.68275,0.146621704,0.555847168,-0.382476807
22376.35575,0.117080688,0.495239258,-0.530807495
22386.04375,0.147476196,0.483963013,-0.593536377
22395.71875,0.189483643,0.552505493,-0.605957031
22405.39275,0.269241333,0.665527344,-0.563247681
22415.08675,0.302429199,0.837005615,-0.476333618
22424.74175,0.302429199,0.952163696,-0.403060913
22434.43875,0.313369751,1.081085205,-0.372680664
22444.12675,0.338027954,1.225601196,-0.363449097
22453.80775,0.334854126,1.303741455,-0.322601318
22463.47975,0.289154053,1.241714478,-0.229721069
22473.16775,0.242202759,1.15397644,-0.128234863
22482.84775,0.186920166,1.096008301,-0.045669556
22492.53075,0.168869019,1.031433105,0.083847046
22502.21175,0.157104492,0.940536499,0.244537354
22511.86975,0.152191162,0.851165771,0.389923096
22521.56875,0.127441406,0.797134399,0.429290771
22531.25575,0.122299194,0.831817627,0.322769165
22540.92175,0.132858276,0.906234741,0.154876709
22550.61775,0.124847412,0.945755005,0.01210022
22560.29775,0.112213135,0.966186523,-0.104492188
22569.97475,0.09538269,0.967514038,-0.214202881
22579.65875,0.098007202,0.952102661,-0.280685425
22589.33975,0.123687744,0.910919189,-0.331207275
22599.01275,0.154373169,0.862960815,-0.372955322
22608.70175,0.182113647,0.812408447,-0.398712158
22618.38175,0.224990845,0.757537842,-0.38420105
22628.05275,0.264022827,0.742767334,-0.343841553
22637.73075,0.271331787,0.752731323,-0.284667969
22647.42775,0.27053833,0.806396484,-0.222793579
22657.09675,0.256286621,0.878890991,-0.162399292
22666.77775,0.227279663,0.939468384,-0.105026245
22676.45175,0.202346802,0.981216431,-0.058868408
22686.15875,0.181915283,1.015365601,-0.000915527
22695.83975,0.164871216,1.032440186,0.071243286
22705.50275,0.131439209,1.035339355,0.155380249
22715.19975,0.081817627,1.006332397,0.235687256
22724.87975,0.038284302,0.979431152,0.269790649
22734.53175,0.012084961,1.020370483,0.218460083
22744.23975,0.003005981,1.11656189,0.091903687
22753.92075,0.004516602,1.220245361,-0.060211182
22763.59275,0.003173828,1.319015503,-0.195953369
22773.28275,-0.000198364,1.395385742,-0.299163818
22782.93775,0.002655029,1.417205811,-0.349777222
22792.64675,0.027023315,1.354156494,-0.343933105
22802.32775,0.097137451,1.228271484,-0.258773804
22812.00775,0.173416138,1.139129639,-0.116516113
22821.69075,0.226089478,1.124938965,0.005187988
22831.37175,0.266525269,1.16418457,0.094146729
22841.05175,0.264648438,1.196273804,0.138763428
22850.73375,0.222930908,1.19140625,0.139205933
22860.41475,0.171356201,1.187713623,0.125640869
22870.08275,0.097640991,1.197387695,0.132278442
22879.77475,0.024475098,1.199554443,0.159805298
22889.45575,-0.027435303,1.213745117,0.186538696
22899.11075,-0.078536987,1.246704102,0.19493103
22908.81675,-0.11579895,1.271408081,0.194366455
22918.49675,-0.109405518,1.262573242,0.166061401
22928.15075,-0.030532837,1.22819519,0.123291016
22937.79375,0.077957153,1.190429688,0.079147339
22947.47375,0.163665771,1.178009033,0.018508911
22957.15175,0.223342896,1.166854858,-0.053543091
22966.83275,0.282836914,1.1456604,-0.169281006
22976.50875,0.353057861,1.177047729,-0.222976685
22986.18575,0.475891113,1.249252319,-0.272140503
22995.87375,0.590942383,1.345687866,-0.305114746
23005.55275,0.653579712,1.393753052,-0.304321289
23015.23375,0.640380859,1.359069824,-0.29574585
23024.91475,0.52482605,1.234741211,-0.312210083
23034.59475,0.388504028,1.111709595,-0.388641357
23044.27575,0.256072998,1.050537109,-0.502487183
23053.95575,0.213973999,1.020431519,-0.592788696
23063.61175,0.223937988,1.061050415,-0.477035522
23073.31875,0.238555908,1.042907715,-0.160293579
23082.99775,0.23890686,1.026382446,0.046157837
23092.67475,0.205230713,1.00440979,0.090591431
23102.34975,0.187515259,0.974777222,-0.020401001
23112.04075,0.149581909,0.943557739,-0.15814209
23121.71775,0.091674805,0.930938721,-0.203521729
23131.38975,0.03666687,0.915863037,-0.23008728
23141.07975,-0.00793457,0.883071899,-0.090209961
23150.75175,-0.021148682,0.836410522,-0.064224243
23160.43975,-0.017410278,0.803878784,-0.114578247
23170.11875,0.025894165,0.78616333,-0.202728271
23179.79075,0.07383728,0.739471436,-0.191345215
23189.46375,0.142028809,0.667251587,-0.145004272
23199.13875,0.203170776,0.586257935,-0.125183105
23208.81375,0.287643433,0.512145996,-0.118759155
23218.50175,0.354660034,0.464874268,-0.096206665
23228.17575,0.395401001,0.445678711,-0.067962646
23237.86475,0.399185181,0.405853271,-0.065338135
23247.54575,0.391052246,0.363067627,-0.055252075
23257.21375,0.384399414,0.330856323,-0.010986328
23266.92575,0.380645752,0.306808472,0.041061401
23276.60575,0.381607056,0.295303345,0.075164795
23286.27075,0.392532349,0.29335022,0.11100769
23295.96775,0.364578247,0.296524048,0.119049072
23305.64375,0.305755615,0.353942871,0.125640869
23315.30475,0.243713379,0.480209351,0.187484741
23325.00775,0.176971436,0.699356079,0.400344849
23334.66775,0.122817993,0.984573364,0.703933716
23344.36675,0.063964844,1.298843384,0.804458618
23354.04575,0.032516479,1.585159302,0.63041687
23363.72075,0.015884399,1.85748291,0.713531494
23373.40575,0.037994385,2.124694824,1.03213501
23383.06975,0.07824707,2.223251343,1.203521729
23392.74275,0.083267212,2.018508911,0.961013794
23402.44575,0.104705811,1.627426147,0.533248901
23412.12575,0.18081665,1.267944336,0.212509155
23421.77875,0.295669556,0.955169678,0.111633301
23431.48575,0.356201172,0.706359863,0.13079834
23441.16675,0.386154175,0.573501587,0.208343506
23450.83875,0.322128296,0.591247559,0.247070313
23460.52575,0.204376221,0.702148438,0.206436157
23470.20375,0.03604126,0.831481934,0.065185547
23479.88175,-0.064666748,1.010528564,-0.040512085
23489.56175,-0.003829956,1.237335205,-0.082473755
23499.23975,0.20098877,1.456832886,-0.052780151
23508.89375,0.458953857,1.650604248,-0.012573242
23518.59775,0.67590332,1.761383057,-0.045639038
23528.27575,0.776916504,1.83203125,-0.090377808
23537.95375,0.714370728,1.703018188,-0.145217896
23547.63175,0.457473755,1.253829956,-0.127502441
23557.29375,0.289276123,0.762176514,-0.103103638
23566.98875,0.275527954,0.500656128,-0.078353882
23576.66675,0.238540649,0.450454712,-0.129898071
23586.34575,0.178741455,0.446853638,-0.215530396
23596.02575,0.141342163,0.399536133,-0.359054565
23605.70475,0.090591431,0.43927002,-0.484298706
23615.37575,0.112884521,0.552078247,-0.531478882
23625.06075,0.165481567,0.751373291,-0.53163147
23634.73875,0.177154541,0.949813843,-0.493713379
23644.41775,0.177947998,1.100814819,-0.441940308
23654.09575,0.178939819,1.230407715,-0.352783203
23663.74575,0.175643921,1.352005005,-0.273452759
23673.45475,0.174194336,1.369491577,-0.184356689
23683.13475,0.164840698,1.284469604,-0.076583862
23692.79575,0.140640259,1.16229248,0.046020508
23702.48875,0.08656311,1.059356689,0.169281006
23712.17475,0.063095093,0.962585449,0.2865448
23721.83175,0.044525146,0.894729614,0.321289063
23731.51375,0.03742981,0.858596802,0.279251099
23741.19375,0.054946899,0.855224609,0.178283691
23750.86875,0.114257813,0.906311035,0.0677948
23760.54975,0.149856567,0.938537598,-0.035461426
23770.22975,0.150772095,0.969741821,-0.11656189
23779.92575,0.141845703,0.984832764,-0.179138184
23789.59275,0.14944458,0.942184448,-0.211090088
23799.28175,0.1980896,0.882644653,-0.206878662
23808.96175,0.303741455,0.848129272,-0.17666626
23818.63975,0.38067627,0.825317383,-0.131866455
23828.29075,0.436386108,0.799743652,-0.086196899
23837.99875,0.454727173,0.749053955,-0.06489563
23847.67775,0.452590942,0.702301025,-0.069137573
23857.33675,0.42539978,0.719787598,-0.092727661
23867.03475,0.346343994,0.813812256,-0.139221191
23876.71275,0.258300781,0.903991699,-0.180496216
23886.36475,0.184951782,0.949066162,-0.195648193
23896.06975,0.145812988,0.958007813,-0.185699463
23905.74975,0.10546875,0.958282471,-0.146713257
23915.42075,0.079299927,0.948623657,-0.082138062
23925.11075,0.062973022,0.939285278,0.001205444
23934.79075,0.058639526,0.961654663,0.099655151
23944.46975,0.053726196,1.027938843,0.162536621
23954.14675,0.033355713,1.117843628,0.152450562
23963.82475,0.006652832,1.208282471,0.078079224
23973.50475,-0.009353638,1.291412354,-0.033828735
23983.18575,-0.008468628,1.363601685,-0.140655518
23992.83975,-0.003265381,1.386016846,-0.222396851
24002.54375,0.010009766,1.326751709,-0.252075195
24012.22375,0.059051514,1.254852295,-0.225631714
24021.88175,0.136566162,1.236694336,-0.133758545
24031.58575,0.176620483,1.287200928,-0.046646118
24041.26575,0.166091919,1.309249878,0.029724121
24050.94275,0.119934082,1.298812866,0.076644897
24060.62375,0.046569824,1.298919678,0.115921021
24070.30275,-0.010223389,1.315124512,0.144317627
24079.97675,-0.037200928,1.349975586,0.168060303
24089.66375,-0.045135498,1.376495361,0.178787231
