time(ms),accelerometerAccelerationX,accelerometerAccelerationY,accelerometerAccelerationZ
0,0.310348511,0.508651733,-0.774429321
9.6840001,0.292312622,0.525054932,-0.772155762
19.3680001,0.279754639,0.532958984,-0.780059814
29.0700001,0.286300659,0.542434692,-0.77494812
38.7540001,0.28868103,0.557403564,-0.77482605
48.4380001,0.288528442,0.56817627,-0.779281616
58.1180001,0.2862854,0.58203125,-0.783447266
67.7750001,0.286651611,0.585968018,-0.787643433
77.4880001,0.289199829,0.579681396,-0.782714844
87.1440001,0.287002563,0.574447632,-0.774658203
96.8550001,0.28163147,0.570388794,-0.766433716
106.5400001,0.275146484,0.561798096,-0.763778687
116.2140001,0.277374268,0.561981201,-0.764953613
125.9050001,0.2865448,0.571624756,-0.758407593
135.5860001,0.284591675,0.57510376,-0.751159668
145.2460001,0.279525757,0.576965332,-0.746353149
154.9500001,0.276473999,0.583221436,-0.753952026
164.6320001,0.278991699,0.583221436,-0.767974854
174.3140001,0.286972046,0.574356079,-0.785293579
183.9940001,0.292892456,0.566116333,-0.7915802
193.6470001,0.294311523,0.559860229,-0.775772095
203.3580001,0.293075562,0.559356689,-0.766876221
213.0380001,0.287628174,0.564987183,-0.764038086
222.6980001,0.291809082,0.562744141,-0.765945435
232.3990001,0.289093018,0.564529419,-0.773117065
242.0830001,0.290313721,0.564620972,-0.770172119
251.7410001,0.289031982,0.565505981,-0.771102905
261.4500001,0.28112793,0.557662964,-0.763595581
271.1170001,0.2837677,0.555969238,-0.756088257
280.8100001,0.295440674,0.554626465,-0.740066528
290.5000001,0.304718018,0.552154541,-0.737075806
300.1540001,0.301147461,0.549865723,-0.735961914
309.8640001,0.295837402,0.553787231,-0.738739014
319.5470001,0.29524231,0.555633545,-0.747146606
329.2300001,0.286651611,0.554168701,-0.764022827
338.9130001,0.283233643,0.549636841,-0.77192688
348.5840001,0.285842896,0.549133301,-0.778808594
358.2590001,0.289916992,0.549301147,-0.770751953
367.9330001,0.291824341,0.546417236,-0.768188477
377.6440001,0.292999268,0.550186157,-0.759811401
387.3090001,0.289840698,0.552536011,-0.744018555
397.0010001,0.286437988,0.543777466,-0.743286133
406.6930001,0.289382935,0.53427124,-0.750732422
416.3650001,0.289978027,0.518188477,-0.761779785
426.0500001,0.289474487,0.497955322,-0.773422241
435.7240001,0.276733398,0.495727539,-0.785858154
445.4120001,0.265838623,0.495727539,-0.798568726
455.1110001,0.261856079,0.515686035,-0.814682007
464.7940001,0.263656616,0.535827637,-0.806121826
474.4700001,0.244262695,0.531661987,-0.787017822
484.1590001,0.230651855,0.474472046,-0.794235229
493.8410001,0.224136353,0.480209351,-0.780288696
503.5230001,0.219039917,0.507263184,-0.793182373
513.2070001,0.204452515,0.522659302,-0.806793213
522.8840001,0.191421509,0.545089722,-0.762008667
532.5710001,0.203613281,0.5493927,-0.739730835
542.2540001,0.238311768,0.593811035,-0.747024536
551.9230001,0.247772217,0.625549316,-0.779815674
561.5570001,0.24671936,0.617584229,-0.7996521
571.2410001,0.24546814,0.601654053,-0.765731812
580.8990001,0.247329712,0.574707031,-0.714691162
590.6090001,0.252349854,0.566467285,-0.68548584
600.2770001,0.256958008,0.584960938,-0.649581909
609.9510001,0.249328613,0.596664429,-0.618469238
619.6600001,0.248641968,0.587234497,-0.609054565
629.3430001,0.248199463,0.569503784,-0.626724243
639.0160001,0.250793457,0.587890625,-0.653076172
648.7110001,0.254669189,0.599914551,-0.640762329
658.3940001,0.251434326,0.581069946,-0.625610352
668.0710001,0.254119873,0.496826172,-0.64944458
677.7620001,0.278930664,0.546569824,-0.616958618
687.4460001,0.3099823,0.593154907,-0.58807373
697.1290001,0.329879761,0.61579895,-0.552886963
706.8110001,0.375259399,0.615814209,-0.517822266
716.4880001,0.461257935,0.612258911,-0.494949341
726.1710001,0.560638428,0.621154785,-0.49937439
735.8610001,0.538955688,0.624572754,-0.538726807
745.5410001,0.394088745,0.638397217,-0.562744141
755.2280001,0.25479126,0.72517395,-0.536270142
764.9130001,0.169845581,0.876724243,-0.47467041
774.5700001,0.08581543,1.012512207,-0.468795776
784.2790001,0.025924683,1.137496948,-0.539871216
793.9620001,-0.008209229,1.224822998,-0.640014648
803.6460001,-0.024780273,1.296203613,-0.752227783
813.3320001,-0.024459839,1.295593262,-0.777984619
823.0160001,0.038253784,1.121551514,-0.717147827
832.7010001,0.117599487,0.947097778,-0.581253052
842.3850001,0.157806396,0.931610107,-0.408447266
852.0700001,0.190246582,0.894882202,-0.260314941
861.7540001,0.208221436,0.869873047,-0.183792114
871.4390001,0.209625244,0.846282959,-0.203872681
881.1000001,0.204528809,0.850921631,-0.260757446
890.8070001,0.218719482,0.840774536,-0.320343018
900.4640001,0.247238159,0.8565979,-0.32850647
910.1540001,0.286270142,0.865615845,-0.284835815
919.8510001,0.323532104,0.856369019,-0.269927979
929.5310001,0.350326538,0.853378296,-0.288711548
939.2050001,0.352157593,0.840209961,-0.249649048
948.9010001,0.366012573,0.843292236,-0.179229736
958.5840001,0.369064331,0.834747314,-0.146057129
968.2500001,0.37612915,0.825195313,-0.207962036
977.9330001,0.460662842,0.773834229,-0.268463135
987.6190001,0.508666992,0.75920105,-0.237335205
997.3110001,0.476287842,0.716537476,-0.219970703
1006.985,0.425567627,0.736572266,-0.174530029
1016.67,0.385070801,0.850982666,-0.160202026
1026.354,0.35244751,1.022125244,-0.272918701
1036.037,0.356430054,1.121673584,-0.379379272
1045.734,0.438354492,1.167556763,-0.533081055
1055.416,0.515960693,1.067001343,-0.359573364
1065.104,0.551986694,1.018218994,-0.269561768
1074.765,0.517715454,0.999404907,-0.253707886
1084.471,0.439727783,0.963684082,-0.261016846
1094.154,0.380065918,0.920501709,-0.231491089
1103.837,0.372192383,0.845397949,-0.263031006
1113.523,0.372207642,0.769607544,-0.340026855
1123.205,0.398468018,0.758560181,-0.402862549
1132.867,0.400756836,0.735427856,-0.327911377
1142.573,0.387008667,0.721710205,-0.22428894
1152.254,0.380706787,0.732681274,-0.148147583
1161.941,0.375579834,0.72984314,-0.104278564
1171.624,0.352920532,0.715011597,-0.063598633
1181.301,0.368286133,0.736282349,-0.056015015
1190.993,0.407348633,0.780258179,-0.065673828
1200.677,0.454269409,0.823974609,-0.069213867
1210.342,0.530944824,0.900665283,-0.086135864
1220.045,0.616378784,0.955978394,-0.104644775
1229.73,0.739425659,1.015548706,-0.132247925
1239.407,0.838790894,1.012832642,-0.163467407
1249.099,0.913528442,0.964248657,-0.231109619
1258.777,0.936065674,0.880554199,-0.279983521
1268.456,0.913330078,0.807693481,-0.302154541
1278.15,0.904953003,0.765075684,-0.322753906
1287.833,0.892349243,0.735427856,-0.343048096
1297.517,0.873428345,0.710418701,-0.346435547
1307.203,0.853500366,0.688278198,-0.335784912
1316.886,0.833435059,0.669128418,-0.321151733
1326.569,0.814453125,0.664855957,-0.311691284
1336.253,0.800262451,0.661422729,-0.299743652
1345.925,0.773696899,0.654067993,-0.288772583
1355.621,0.736450195,0.648422241,-0.272445679
1365.305,0.683273315,0.636734009,-0.259521484
1374.966,0.637283325,0.625,-0.257049561
1384.655,0.601242065,0.625778198,-0.257888794
1394.356,0.592391968,0.645431519,-0.260955811
1404.019,0.601959229,0.666107178,-0.266860962
1413.724,0.623153687,0.673416138,-0.269577026
1423.407,0.660491943,0.684661865,-0.271011353
1433.083,0.71206665,0.706054688,-0.285125732
1442.776,0.757965088,0.71762085,-0.299804688
1452.451,0.782150269,0.714706421,-0.30947876
1462.138,0.799530029,0.70892334,-0.313644409
1471.76,0.812759399,0.6927948,-0.323196411
1481.444,0.824783325,0.684387207,-0.349975586
1491.118,0.866333008,0.690246582,-0.359848022
1500.81,0.927978516,0.707687378,-0.346755981
1510.488,0.97958374,0.778076172,-0.310958862
1520.177,0.988937378,0.855224609,-0.256896973
1529.86,0.984375,0.923309326,-0.202026367
1539.526,0.993179321,0.976654053,-0.15007019
1549.228,1.003662109,1.022750854,-0.104644775
1558.913,0.98046875,1.032287598,-0.079681396
1568.583,0.919052124,1.001937866,-0.060394287
1578.279,0.821060181,0.92755127,-0.046569824
1587.961,0.716934204,0.855056763,-0.027328491
1597.631,0.62940979,0.792312622,-0.005096436
1607.33,0.557495117,0.751876831,0.030685425
1617.013,0.505020142,0.729675293,0.062850952
1626.689,0.46131897,0.718612671,0.093063354
1636.363,0.435592651,0.718093872,0.125808716
1646.061,0.418167114,0.73677063,0.160720825
1655.728,0.4112854,0.770294189,0.190856934
1665.416,0.430130005,0.809967041,0.207748413
1675.105,0.485733032,0.848754883,0.205108643
1684.789,0.551452637,0.883453369,0.191329956
1694.456,0.610366821,0.900146484,0.165267944
1704.154,0.652603149,0.893325806,0.132369995
1713.832,0.664978027,0.852859497,0.12147522
1723.512,0.655029297,0.791946411,0.128097534
1733.195,0.636230469,0.723693848,0.127090454
1742.895,0.609359741,0.67868042,0.143249512
1752.577,0.580718994,0.655380249,0.141738892
1762.236,0.568893433,0.652053833,0.115585327
1771.943,0.566574097,0.648574829,0.085159302
1781.625,0.568008423,0.643966675,0.060668945
1791.281,0.573516846,0.638885498,0.027938843
1800.989,0.569107056,0.644683838,-0.048171997
1810.673,0.59866333,0.63420105,-0.155960083
1820.343,0.638092041,0.615280151,-0.244949341
1830.039,0.627288818,0.595703125,-0.230041504
1839.723,0.583221436,0.595046997,-0.13861084
1849.407,0.532592773,0.608917236,-0.043228149
1859.091,0.498947144,0.615875244,0.018112183
1868.754,0.480224609,0.631317139,0.040466309
1878.456,0.467041016,0.661407471,0.035675049
1888.137,0.470565796,0.698669434,0.010864258
1897.807,0.491744995,0.74055481,-0.027618408
1907.506,0.516891479,0.776855469,-0.074508667
1917.183,0.534301758,0.820541382,-0.136886597
1926.86,0.558792114,0.82484436,-0.22076416
1936.559,0.604156494,0.784759521,-0.319732666
1946.243,0.653884888,0.722167969,-0.372283936
1955.918,0.688995361,0.672393799,-0.40486145
1965.612,0.71546936,0.641998291,-0.414093018
1975.296,0.730545044,0.622421265,-0.394042969
1984.981,0.747955322,0.611831665,-0.380615234
1994.664,0.754852295,0.598815918,-0.364807129
2004.349,0.758682251,0.580352783,-0.339782715
2014.031,0.772201538,0.559875488,-0.336990356
2023.715,0.795639038,0.547363281,-0.344772339
2033.397,0.813476563,0.541030884,-0.32598877
2043.08,0.805175781,0.560028076,-0.31072998
2052.764,0.800186157,0.593154907,-0.301315308
2062.419,0.820617676,0.625244141,-0.298934937
2072.128,0.840270996,0.645355225,-0.287628174
2081.809,0.852783203,0.656570435,-0.275772095
2091.465,0.854522705,0.664627075,-0.229934692
2101.175,0.866485596,0.675842285,-0.207519531
2110.859,0.90145874,0.697921753,-0.213928223
2120.533,0.937515259,0.716049194,-0.23336792
2130.223,0.972473145,0.736923218,-0.261978149
2139.903,1.006027222,0.771133423,-0.302520752
2149.586,1.050003052,0.822052002,-0.328445435
2159.269,1.071792603,0.895675659,-0.321380615
2168.927,1.073532104,0.970092773,-0.283599854
2178.63,1.038619995,1.002197266,-0.231155396
2188.297,0.964538574,1.001907349,-0.171737671
2197.974,0.879837036,0.985031128,-0.110244751
2207.684,0.802337646,0.961425781,-0.052963257
2217.346,0.723602295,0.916213989,0.015533447
2227.031,0.646514893,0.858535767,0.068054199
2236.713,0.591125488,0.806228638,0.1065979
2246.401,0.553070068,0.754394531,0.146575928
2256.079,0.532424927,0.70614624,0.16897583
2265.778,0.511001587,0.665481567,0.184326172
2275.462,0.498580933,0.636657715,0.179046631
2285.138,0.502548218,0.634567261,0.165634155
2294.827,0.530715942,0.66204834,0.135574341
2304.511,0.57131958,0.701965332,0.106506348
2314.193,0.605422974,0.742904663,0.087341309
2323.863,0.633743286,0.781555176,0.082504272
2333.537,0.651092529,0.801895142,0.067611694
2343.244,0.657485962,0.806808472,0.053985596
2352.926,0.658172607,0.795166016,0.036193848
2362.59,0.655319214,0.770019531,0.012359619
2372.292,0.659042358,0.725830078,-0.001327515
2381.975,0.667434692,0.680053711,0.040756226
2391.643,0.690658569,0.645065308,0.087463379
2401.338,0.729263306,0.607650757,0.121322632
2411.02,0.76524353,0.560379028,0.123321533
2420.693,0.797027588,0.528427124,0.100372314
2430.385,0.818817139,0.50944519,0.080352783
2440.068,0.811889648,0.513565063,0.06980896
2449.745,0.794570923,0.534713745,0.066925049
2459.433,0.763320923,0.56022644,0.061157227
2469.118,0.72479248,0.578125,0.060256958
2478.801,0.674514771,0.59185791,0.060760498
2488.484,0.637817383,0.595489502,0.049942017
2498.167,0.621063232,0.613189697,0.032775879
2507.849,0.615509033,0.63394165,0.022949219
2517.532,0.620819092,0.653213501,0.018218994
2527.201,0.630065918,0.669113159,0.006317139
2536.831,0.643295288,0.683303833,0.000915527
2546.516,0.656265259,0.690414429,-0.005737305
2556.2,0.672317505,0.69631958,-0.017440796
2565.883,0.687179565,0.697891235,-0.028961182
2575.556,0.69708252,0.707717896,-0.045043945
2585.231,0.704910278,0.720275879,-0.059509277
2594.933,0.688980103,0.750213623,-0.092575073
2604.617,0.630126953,0.78465271,-0.172927856
2614.282,0.570129395,0.834823608,-0.259475708
2623.982,0.613586426,0.836578369,-0.383682251
2633.664,0.735870361,0.793289185,-0.471420288
2643.339,0.789474487,0.766235352,-0.4896698
2653.031,0.802886963,0.701858521,-0.466262817
2662.713,0.803375244,0.638549805,-0.38734436
2672.396,0.816802979,0.61227417,-0.278945923
2682.079,0.855911255,0.613769531,-0.177490234
2691.764,0.902023315,0.639083862,-0.09526062
2701.441,0.941558838,0.672622681,-0.058395386
2711.13,0.961456299,0.707489014,-0.040405273
2720.813,0.975158691,0.737991333,-0.04524231
2730.496,0.979888916,0.744171143,-0.071838379
2740.179,0.986068726,0.736434937,-0.118057251
2749.842,1.021759033,0.750167847,-0.168777466
2759.546,1.073486328,0.77281189,-0.216491699
2769.229,1.124786377,0.816162109,-0.243713379
2778.903,1.177261353,0.879196167,-0.248275757
2788.598,1.201080322,0.954956055,-0.221847534
2798.281,1.174377441,0.996398926,-0.166183472
2807.956,1.087860107,0.965942383,-0.116714478
2817.648,0.936965942,0.846710205,-0.073867798
2827.33,0.783737183,0.71043396,-0.048538208
2837.014,0.664093018,0.615661621,-0.024230957
2846.668,0.581573486,0.553268433,0.001251221
2856.381,0.527389526,0.526168823,0.023010254
2866.052,0.500198364,0.53527832,0.047088623
2875.738,0.50920105,0.583755493,0.071166992
2885.401,0.535415649,0.659545898,0.09147644
2895.087,0.579391479,0.753356934,0.106048584
2904.788,0.620666504,0.853042603,0.117996216
2914.464,0.65574646,0.930969238,0.120285034
2924.141,0.671981812,0.985473633,0.111465454
2933.823,0.665115356,0.998977661,0.102859497
2943.513,0.629577637,0.934890747,0.073059082
2953.204,0.566864014,0.828201294,0.03918457
2962.885,0.503692627,0.721893311,0.009185791
2972.56,0.457443237,0.633651733,-0.00831604
2982.25,0.441894531,0.568969727,-0.014144897
2991.932,0.441665649,0.540557861,-0.013320923
3001.615,0.461151123,0.539245605,-0.006713867
3011.297,0.489471436,0.548278809,0.000671387
3020.978,0.516220093,0.554122925,0.000671387
3030.658,0.547180176,0.561904907,-0.003723145
3040.343,0.588592529,0.571166992,-0.007980347
3050.012,0.630783081,0.58215332,-0.014587402
3059.706,0.666870117,0.589447021,-0.022293091
3069.387,0.693634033,0.595413208,-0.03364563
3079.065,0.710418701,0.589813232,-0.04335022
3088.751,0.710342407,0.586227417,-0.054992676
3098.432,0.716751099,0.578079224,-0.07194519
3108.096,0.722213745,0.571411133,-0.087890625
3117.794,0.732315063,0.558120728,-0.097076416
3127.476,0.743850708,0.555328369,-0.123977661
3137.146,0.759109497,0.559310913,-0.14251709
3146.841,0.775863647,0.569549561,-0.159347534
3156.524,0.791259766,0.567565918,-0.175231934
3166.205,0.801559448,0.566101074,-0.196762085
3175.888,0.80317688,0.562805176,-0.202514648
3185.565,0.800445557,0.566696167,-0.200698853
3195.253,0.793045044,0.561264038,-0.191116333
3204.936,0.786224365,0.555770874,-0.183563232
3214.594,0.785903931,0.522598267,-0.207748413
3224.303,0.810897827,0.431503296,-0.384246826
3233.98,0.878540039,0.206665039,-2.070495605
3243.642,0.825332642,0.297210693,-2.151931763
3253.352,0.712738037,0.601593018,-0.664001465
3263.034,0.674331665,0.701187134,-0.164260864
3272.707,0.678771973,0.726928711,-0.079483032
3282.4,0.715087891,0.799133301,-0.032455444
3292.081,0.76751709,0.874435425,0.03453064
3301.764,0.833969116,0.94229126,0.08152771
3311.447,0.919082642,0.976013184,0.101821899
3321.128,1.005096436,0.982910156,0.07572937
3330.81,1.083572388,0.955734253,-0.012939453
3340.493,1.126998901,0.912124634,-0.105712891
3350.153,1.12612915,0.882705688,-0.181350708
3359.852,1.086029053,0.882644653,-0.214096069
3369.539,1.003189087,0.891891479,-0.164978027
3379.201,0.875686646,0.85357666,-0.084472656
3388.904,0.747741699,0.776321411,-0.027145386
3398.57,0.679199219,0.732009888,0.0103302
3408.238,0.655395508,0.705703735,0.052276611
3417.928,0.638168335,0.702590942,0.084472656
3427.61,0.639587402,0.718551636,0.097106934
3437.298,0.673873901,0.759307861,0.095321655
3446.928,0.735076904,0.817443848,0.075042725
3456.582,0.803070068,0.879684448,0.042419434
3466.275,0.849060059,0.916290283,-0.004486084
3475.951,0.862136841,0.909927368,-0.038970947
3485.635,0.838058472,0.869049072,-0.055114746
3495.306,0.807922363,0.817810059,-0.055541992
3505.009,0.777511597,0.741104126,-0.041488647
3514.689,0.736938477,0.655807495,-0.018005371
3524.372,0.699401855,0.585357666,-0.002960205
3534.054,0.667953491,0.530471802,0.00642395
3543.735,0.651031494,0.497406006,0.018066406
3553.416,0.643722534,0.482162476,0.025466919
3563.097,0.631607056,0.47064209,0.009674072
3572.763,0.626876831,0.473220825,0.030502319
3582.46,0.611541748,0.484619141,0.0440979
3592.142,0.591064453,0.491485596,0.05809021
3601.815,0.564147949,0.478561401,0.077438354
3611.498,0.539230347,0.480316162,0.080551147
3621.186,0.523254395,0.488937378,0.075256348
3630.861,0.515533447,0.509048462,0.069259644
3640.548,0.514450073,0.529144287,0.060592651
3650.229,0.517593384,0.548049927,0.053268433
3659.903,0.526321411,0.569900513,0.041381836
3669.592,0.536254883,0.598464966,0.037582397
3679.274,0.551452637,0.62713623,0.025909424
3688.943,0.571594238,0.647979736,0.01399231
3698.641,0.590179443,0.662948608,0.009780884
3708.324,0.609359741,0.668121338,0.008285522
3718.007,0.631881714,0.668106079,0.012771606
3727.689,0.661392212,0.664306641,0.017623901
3737.343,0.691802979,0.661560059,0.023040771
3747.052,0.723098755,0.660827637,0.03125
3756.735,0.758331299,0.660949707,0.036026001
3766.396,0.79788208,0.664810181,0.033935547
3776.097,0.842178345,0.681900024,0.014846802
3785.779,0.88520813,0.708847046,-0.007385254
3795.451,0.924713135,0.741271973,-0.024581909
3805.143,0.963027954,0.775985718,-0.042449951
3814.797,0.983886719,0.802642822,-0.056945801
3824.506,0.995758057,0.808670044,-0.073989868
3834.188,0.991195679,0.810821533,-0.098770142
3843.85,0.989532471,0.770706177,-0.213912964
3853.524,1.067245483,0.621917725,-0.702346802
3863.231,1.188171387,0.485244751,-1.126174927
3872.904,1.293899536,0.610870361,-0.756103516
3882.595,1.332366943,0.791885376,-0.316238403
3892.251,1.281021118,0.963012695,-0.153701782
3901.955,1.148895264,1.085006714,-0.184631348
3911.619,0.974472046,1.025772095,-0.137115479
3921.324,0.799591064,0.877044678,-0.05229187
3930.975,0.675079346,0.771438599,0.047943115
3940.664,0.599014282,0.721954346,0.100494385
3950.363,0.546936035,0.719787598,0.14100647
3960.028,0.521118164,0.754547119,0.201049805
3969.709,0.503753662,0.811096191,0.279647827
3979.393,0.48298645,0.880310059,0.359954834
3989.076,0.474731445,0.924850464,0.389343262
3998.757,0.468338013,0.96774292,0.383560181
4008.439,0.48475647,1.000213623,0.341888428
4018.131,0.511688232,1.023345947,0.281234741
4027.82,0.543151855,1.025970459,0.205581665
4037.499,0.580123901,0.99079895,0.118850708
4047.181,0.596343994,0.947891235,0.049667358
4056.862,0.60585022,0.9115448,0.019195557
4066.528,0.598251343,0.86479187,0.008712769
4076.222,0.589889526,0.816040039,-0.001724243
4085.906,0.573165894,0.775741577,-0.009994507
4095.58,0.567855835,0.744049072,-0.016937256
4105.268,0.574234009,0.709899902,-0.029937744
4114.951,0.582687378,0.681243896,-0.020385742
4124.619,0.587539673,0.642318726,-0.039169312
4134.315,0.585647583,0.608123779,-0.04019165
4143.998,0.595962524,0.577346802,-0.046890259
4153.682,0.60395813,0.545471191,-0.069717407
4163.364,0.597183228,0.51890564,-0.082305908
4173.043,0.61151123,0.492324829,-0.111984253
4182.73,0.614151001,0.474319458,-0.136444092
4192.413,0.624954224,0.456863403,-0.155410767
4202.065,0.635101318,0.449401855,-0.162948608
4211.778,0.649475098,0.446304321,-0.145721436
4221.455,0.674041748,0.449127197,-0.122009277
4231.119,0.709197998,0.442138672,-0.096496582
4240.823,0.753829956,0.451568604,-0.069702148
4250.501,0.790725708,0.455001831,-0.055297852
4260.171,0.816497803,0.450012207,-0.047714233
4269.861,0.834320068,0.443145752,-0.047225952
4279.542,0.838272095,0.443069458,-0.059585571
4289.215,0.824539185,0.448104858,-0.076309204
4298.898,0.799316406,0.458557129,-0.100448608
4308.583,0.763549805,0.465911865,-0.12701416
4318.264,0.729049683,0.481628418,-0.132827759
4327.943,0.694168091,0.48500061,-0.125930786
4337.624,0.685638428,0.4896698,-0.144683838
4347.308,0.696212769,0.514694214,-0.187866211
4356.911833,0.716888428,0.54649353,-0.211624146
4366.566834,0.745025635,0.587188721,-0.207183838
4376.276834,0.78288269,0.649398804,-0.194366455
4385.931834,0.823760986,0.731552124,-0.186294556
4395.621834,0.851699829,0.80430603,-0.224761963
4405.310833,0.899475098,0.877761841,-0.431121826
4414.995834,1.121139526,0.976135254,-1.800369263
4424.688834,1.21685791,0.856277466,-1.730300903
4434.375833,1.079559326,0.892944336,-0.738510132
4444.049833,1.006958008,1.043731689,-0.373931885
4453.715834,1.027374268,1.108337402,-0.253631592
4463.409834,0.992706299,1.160522461,-0.105300903
4473.092834,0.88861084,1.151153564,0.067596436
4482.776833,0.770111084,1.071868896,0.219711304
4492.458834,0.657043457,0.958465576,0.315719604
4502.157833,0.596206665,0.885574341,0.388641357
4511.841834,0.564651489,0.831634521,0.410842896
4521.524834,0.559051514,0.793457031,0.421234131
4531.179833,0.561233521,0.765777588,0.437744141
4540.887834,0.57723999,0.759490967,0.430328369
4550.570834,0.632659912,0.776016235,0.374038696
4560.250833,0.712722778,0.813827515,0.277618408
4569.935834,0.788757324,0.859344482,0.186721802
4579.617834,0.865890503,0.907012939,0.066146851
4589.292834,0.948287964,0.908203125,-0.056137085
4598.984834,0.99005127,0.828155518,-0.068374634
4608.667834,0.957290649,0.700241089,0.003692627
4618.350834,0.879592896,0.579879761,0.089492798
4628.013833,0.804840088,0.539276123,0.167419434
4637.686833,0.723587036,0.516937256,0.198165894
4647.399833,0.639846802,0.50491333,0.1927948
4657.082833,0.560409546,0.512863159,0.174240112
4666.738834,0.495986938,0.516983032,0.145507813
4676.450833,0.456802368,0.522979736,0.124832153
4686.132833,0.426239014,0.524307251,0.104705811
4695.787834,0.413085938,0.516342163,0.085601807
4705.491834,0.419158936,0.51550293,0.059631348
4715.182834,0.443435669,0.513458252,0.043640137
4724.862834,0.473861694,0.521835327,0.033859253
4734.548834,0.505340576,0.528060913,0.034896851
4744.230834,0.545089722,0.537124634,0.037521362
4753.906833,0.59262085,0.540161133,0.036712646
4763.594834,0.642593384,0.543762207,0.031524658
4773.276834,0.694442749,0.53175354,0.022537231
4782.959834,0.748672485,0.520278931,0.01385498
4792.642834,0.794830322,0.508834839,0.00617981
4802.317833,0.829025269,0.503601074,-0.000778198
4812.009833,0.854248047,0.516937256,-0.002532959
4821.693833,0.868392944,0.546417236,-0.011886597
4831.350834,0.870819092,0.585540771,-0.015090942
4841.062834,0.86151123,0.621353149,-0.032989502
4850.745834,0.823684692,0.637878418,-0.030670166
4860.404834,0.784240723,0.658111572,-0.028717041
4870.109834,0.768753052,0.668823242,-0.035324097
4879.792834,0.766403198,0.679885864,-0.0493927
4889.456833,0.782028198,0.698318481,-0.059860229
4899.158834,0.808502197,0.728637695,-0.070877075
4908.834833,0.843399048,0.765136719,-0.082885742
4918.508833,0.873138428,0.801269531,-0.103912354
4928.209833,0.89541626,0.830459595,-0.121871948
4937.887834,0.905975342,0.847213745,-0.134231567
4947.551833,0.899154663,0.849029541,-0.141204834
4957.235833,0.885757446,0.837539673,-0.145828247
4966.921834,0.881988525,0.828262329,-0.155700684
4976.621833,0.908370972,0.854202271,-0.168136597
4986.290833,0.956192017,0.837585449,-0.142364502
4995.993834,1.049484253,0.824127197,-0.271453857
5005.660833,1.210693359,0.948303223,-0.483474731
5015.343834,1.244628906,1.02394104,-0.512145996
5025.015834,1.111938477,0.990234375,-0.44052124
5034.724833,0.852615356,0.799331665,-0.31477356
5044.407833,0.65663147,0.644348145,-0.180007935
5054.081833,0.556030273,0.587158203,-0.074661255
5063.771833,0.528747559,0.602096558,-0.00062561
5073.454833,0.545410156,0.672683716,0.059417725
5083.129833,0.610443115,0.782974243,0.097015381
5092.816834,0.688827515,0.915542603,0.142150879
5102.499834,0.748382568,1.067871094,0.215927124
5112.181834,0.763702393,1.190643311,0.265975952
5121.863834,0.771179199,1.251205444,0.273895264
5131.521834,0.738388062,1.221099854,0.218414307
5141.227834,0.674697876,1.113510132,0.137619019
5150.908834,0.604431152,0.984344482,0.061752319
5160.574833,0.542037964,0.869644165,0.002807617
5170.574834,0.492385864,0.786071777,-0.038101196
5180.206833,0.453872681,0.719985962,-0.067657471
5189.889833,0.436035156,0.666702271,-0.071487427
5199.549833,0.426101685,0.628051758,-0.069061279
5209.253833,0.419311523,0.602340698,-0.060913086
5218.929833,0.415267944,0.589736938,-0.048706055
5228.602834,0.416717529,0.575073242,-0.054275513
5238.299834,0.425231934,0.560211182,-0.072372437
5247.981834,0.441879272,0.551010132,-0.081298828
5257.638834,0.459213257,0.541213989,-0.092559814
5267.345834,0.477371216,0.537384033,-0.095458984
5277.028834,0.501052856,0.539642334,-0.095779419
5286.702833,0.519104004,0.543670654,-0.097091675
5296.392834,0.535583496,0.552230835,-0.085739136
5306.075834,0.550918579,0.56401062,-0.076217651
5315.758834,0.570297241,0.57951355,-0.077148438
5325.442833,0.587203979,0.589263916,-0.086608887
5335.108834,0.601348877,0.594223022,-0.097717285
5344.802834,0.614990234,0.594345093,-0.105712891
5354.491833,0.629211426,0.595733643,-0.112106323
5364.161833,0.648712158,0.600906372,-0.115997314
5373.857833,0.667419434,0.607788086,-0.116333008
5383.521834,0.689605713,0.617965698,-0.114746094
5393.195834,0.714584351,0.625076294,-0.11114502
5402.900833,0.735214233,0.627502441,-0.103424072
5412.578834,0.746673584,0.611358643,-0.086334229
5422.266833,0.751419067,0.582000732,-0.06842041
5431.955834,0.767669678,0.538574219,-0.020111084
5441.638834,0.79788208,0.480255127,0.039932251
5451.314833,0.836700439,0.442779541,0.044967651
5461.000834,0.874832153,0.430114746,-0.002029419
5470.683834,0.908462524,0.438079834,-0.079727173
5480.365834,0.934417725,0.47277832,-0.160690308
5490.048834,0.949172974,0.514251709,-0.21812439
5499.720834,0.979736328,0.590698242,-0.253112793
5509.412834,1.041564941,0.682617188,-0.309082031
5519.096834,1.114547729,0.794677734,-0.563049316
5528.773833,1.19317627,0.934341431,-1.575042725
5538.460834,1.174468994,0.911468506,-1.83442688
5548.136833,1.048568726,0.815124512,-0.781967163
5557.826834,1.012756348,0.894470215,-0.473907471
5567.510833,1.020477295,1.017578125,-0.411895752
5577.175833,1.037139893,1.114974976,-0.234375
5586.879833,1.036712646,1.178146362,-0.026626587
5596.552834,0.915603638,1.198608398,0.10887146
5606.240833,0.763961792,1.154403687,0.157302856
5615.926833,0.66027832,1.088027954,0.162200928
5625.605833,0.615432739,1.011901855,0.169540405
5635.279833,0.603103638,0.921020508,0.183746338
5644.959833,0.592559814,0.843566895,0.151977539
5654.643833,0.57951355,0.799026489,0.094558716
5664.325833,0.564987183,0.803695679,0.055923462
5674.014834,0.561218262,0.846588135,0.028823853
5683.708834,0.581329346,0.872787476,0.004104614
5693.385833,0.62008667,0.889556885,0.000350952
5703.074833,0.652877808,0.918334961,0.023178101
5712.758833,0.658218384,0.941116333,0.045639038
5722.414834,0.65246582,0.930740356,0.065261841
5732.125833,0.62461853,0.877639771,0.087539673
5741.809834,0.596588135,0.799743652,0.097396851
5751.493834,0.561691284,0.713394165,0.097702026
5761.177834,0.529541016,0.64654541,0.093521118
5770.861833,0.508544922,0.596588135,0.091934204
5780.544833,0.501220703,0.560028076,0.092422485
5790.227833,0.495422363,0.537918091,0.089889526
5799.911833,0.486068726,0.516387939,0.077972412
5809.595833,0.477371216,0.497177124,0.067199707
5819.279834,0.471740723,0.477340698,0.053909302
5828.944833,0.471252441,0.467544556,0.039505005
5838.647834,0.477355957,0.465438843,0.031982422
5848.331833,0.490539551,0.472122192,0.017669678
5857.996833,0.505050659,0.488357544,0.005691528
5867.697833,0.529327393,0.511550903,0.000671387
5877.375834,0.554000854,0.536224365,-0.004516602
5887.055834,0.575744629,0.561981201,-0.005493164
5896.748834,0.59614563,0.584823608,-0.007019043
5906.433834,0.612213135,0.603775024,0.001861572
5916.109833,0.634109497,0.62336731,0.004104614
5925.801833,0.658554077,0.64024353,0.007705688
5935.486833,0.685089111,0.662841797,0.003677368
5945.169833,0.724517822,0.675704956,-0.001144409
5954.851833,0.763931274,0.685089111,-0.01322937
5964.537834,0.800567627,0.692459106,-0.016326904
5974.221834,0.835876465,0.695053101,-0.024719238
5983.903834,0.855941772,0.692871094,-0.031784058
5993.586834,0.858856201,0.678039551,-0.03565979
6003.269833,0.85546875,0.664794922,-0.040267944
6012.953833,0.865463257,0.658508301,-0.05645752
6022.608834,0.886703491,0.669204712,-0.067810059
6032.322834,0.911346436,0.689178467,-0.069061279
6042.007834,0.946044922,0.707061768,-0.076446533
6051.674833,0.983078003,0.705917358,-0.114318848
6061.373834,1.011520386,0.715118408,-0.139373779
6071.057833,1.043106079,0.713104248,-0.127761841
6080.714834,1.07258606,0.69442749,-0.13923645
6090.425833,1.10093689,0.681396484,-0.189193726
6100.110834,1.14100647,0.691680908,-0.242706299
6109.766833,1.208969116,0.723114014,-0.265655518
6119.471833,1.291152954,0.735748291,-0.344696045
6129.145833,1.336898804,0.743103027,-0.375595093
6138.839834,1.307479858,0.799530029,-0.239028931
6148.525834,1.202407837,0.897079468,-0.112411499
6158.200833,1.017196655,0.871017456,-0.083404541
6167.879834,0.804199219,0.761627197,-0.092224121
6177.562833,0.643692017,0.655349731,-0.090393066
6187.251834,0.544113159,0.591537476,-0.079544067
6196.930833,0.497329712,0.574050903,-0.067184448
6206.629834,0.494537354,0.611053467,-0.04725647
6216.298834,0.525802612,0.696212769,-0.024490356
6225.997833,0.573318481,0.812103271,0.006698608
6235.680833,0.624740601,0.939743042,0.051864624
6245.365833,0.614898682,1.051773071,0.08039856
6255.049834,0.662063599,1.140960693,0.089157104
6264.732834,0.644210815,1.128112793,0.126373291
6274.415834,0.587875366,1.063583374,0.141479492
6284.083833,0.507492065,0.981887817,0.142089844
6293.757834,0.431854248,0.882797241,0.126800537
6303.467833,0.375473022,0.783111572,0.102737427
6313.151833,0.341415405,0.701705933,0.080383301
6322.810833,0.331314087,0.649398804,0.060638428
6332.519834,0.333023071,0.621444702,0.041610718
6342.204834,0.346572876,0.610198975,0.028167725
6351.862834,0.360473633,0.604568481,0.017990112
6361.572833,0.382583618,0.605209351,0.012298584
6371.254833,0.405059814,0.613449097,0.006454468
6380.929833,0.438110352,0.630050659,-0.017913818
6390.622833,0.473068237,0.649429321,-0.03427124
6400.307834,0.497711182,0.656555176,-0.037734985
6409.969834,0.521682739,0.657577515,-0.037704468
6419.675833,0.536621094,0.650726318,-0.045318604
6429.358833,0.550994873,0.643157959,-0.055236816
6439.041833,0.565155029,0.641281128,-0.068771362
6448.725833,0.577270508,0.639907837,-0.078186035
6458.399834,0.590591431,0.623321533,-0.111404419
6468.091833,0.613815308,0.606582642,-0.152389526
6477.774834,0.635238647,0.594390869,-0.195785522
6487.452833,0.652206421,0.595001221,-0.231079102
6497.141834,0.668502808,0.603546143,-0.247009277
6506.825834,0.680557251,0.606323242,-0.24395752
6516.502833,0.688827515,0.597946167,-0.232192993
6526.193833,0.687286377,0.584686279,-0.218292236
6535.872834,0.679412842,0.576507568,-0.203613281
6545.553834,0.688964844,0.56300354,-0.21395874
6555.244834,0.744598389,0.507293701,-0.357955933
6564.927834,0.870025635,0.400512695,-0.699905396
6574.611834,0.981460571,0.378845215,-0.811126709
6584.297833,0.979309082,0.488113403,-0.517272949
6593.974834,0.901733398,0.593307495,-0.223846436
6603.662833,0.844360352,0.654968262,-0.109741211
6613.346833,0.859069824,0.75958252,-0.146972656
6623.006833,0.897384644,0.956253052,-0.266845703
6632.717834,0.942550659,1.098129272,-0.341522217
6642.390833,0.978775024,1.126342773,-0.383026123
6652.064833,0.997955322,1.094604492,-0.446975708
6661.768833,0.970108032,1.045349121,-0.504058838
6671.433834,0.916152954,0.996688843,-0.448883057
6681.106834,0.896011353,0.941131592,-0.294448853
6690.791833,0.89302063,0.945953369,-0.12789917
6700.496833,0.871261597,0.960403442,-0.022628784
6710.166833,0.811691284,0.979202271,0.057662964
6719.851833,0.729858398,0.983886719,0.106246948
6729.535833,0.682403564,0.975082397,0.122711182
6739.213833,0.669830322,0.927062988,0.1224823
6748.855833,0.657012939,0.865951538,0.102157593
6758.516833,0.636032104,0.806137085,0.075500488
6768.217833,0.607620239,0.789794922,0.037979126
6777.903833,0.605377197,0.798248291,0.010147095
6787.588834,0.620864868,0.807723999,-0.014663696
6797.208834,0.643814087,0.833480835,-0.024780273
6806.895833,0.675994873,0.869766235,-0.026855469
6816.579833,0.709243774,0.921066284,-0.028152466
6826.255834,0.73387146,0.963195801,-0.029052734
6835.949834,0.737319946,0.98109436,-0.012252808
6845.605833,0.724075317,0.964477539,0.009689331
6855.317833,0.687011719,0.910583496,0.021881104
6865.002833,0.64100647,0.832855225,0.033859253
6874.657834,0.589492798,0.753601074,0.042297363
6884.347834,0.544876099,0.683502197,0.049713135
6894.042834,0.515365601,0.629577637,0.060134888
6903.722834,0.501647949,0.59046936,0.06489563
6913.421833,0.49961853,0.5625,0.072647095
6923.086833,0.504089355,0.542556763,0.065551758
6932.762834,0.517623901,0.528274536,0.061569214
6942.456834,0.529495239,0.516647339,0.056015015
6952.139833,0.54385376,0.509399414,0.042221069
6961.830834,0.55758667,0.508666992,0.038299561
6971.524834,0.57333374,0.515136719,0.036178589
6981.207833,0.586486816,0.52104187,0.036071777
6990.868833,0.603622437,0.526626587,0.048309326
7000.575833,0.615432739,0.531677246,0.057235718
7010.246833,0.622970581,0.528594971,0.068969727
7019.942833,0.629776001,0.525894165,0.070617676
7029.626834,0.632583618,0.531890869,0.063980103
7039.284833,0.649749756,0.551010132,0.034622192
7048.995833,0.670227051,0.56791687,0.004318237
7058.679833,0.684661865,0.592315674,-0.015289307
7068.352833,0.69744873,0.617370605,-0.023864746
7078.048834,0.709365845,0.630599976,-0.021560669
7087.731834,0.72869873,0.643615723,-0.024429321
7097.414834,0.749069214,0.651306152,-0.024261475
7107.099833,0.761810303,0.657623291,-0.02192688
7116.784833,0.770568848,0.659103394,-0.017669678
7126.459834,0.776794434,0.656784058,-0.017684937
7136.152834,0.785003662,0.651855469,-0.021713257
7145.835834,0.803436279,0.649688721,-0.029983521
7155.519834,0.833587646,0.6640625,-0.041442871
7165.205833,0.876785278,0.686203003,-0.061523438
7174.889833,0.911727905,0.711578369,-0.067626953
7184.574833,0.945220947,0.741622925,-0.077041626
7194.258834,0.972076416,0.761154175,-0.079879761
7203.941834,0.993148804,0.767288208,-0.089553833
7213.626834,1.018478394,0.768218994,-0.134979248
7223.309833,1.07598877,0.815063477,-0.148071289
7232.994833,1.142776489,0.885528564,-0.146286011
7242.673834,1.202606201,0.965332031,-0.140960693
7252.365834,1.23135376,1.018676758,-0.155441284
7262.025834,1.225326538,1.040084839,-0.164581299
7271.734833,1.17124939,1.004608154,-0.179779053
7281.420834,1.041915894,0.906219482,-0.173706055
7291.097833,0.877914429,0.811721802,-0.115661621
7300.788834,0.717514038,0.714630127,-0.08291626
7310.472833,0.589187622,0.625366211,-0.076095581
7320.156833,0.504272461,0.569503784,-0.063796997
7329.839833,0.460449219,0.550491333,-0.048934937
7339.524834,0.455825806,0.597442627,-0.040878296
7349.206833,0.492797852,0.703842163,-0.030044556
7358.893834,0.541259766,0.829299927,-0.006713867
7368.579833,0.579421997,0.938171387,0.030548096
7378.258834,0.597869873,1.009292603,0.069641113
7387.945833,0.594696045,1.049026489,0.117370605
7397.614833,0.571273804,1.040206909,0.158187866
7407.308833,0.528579712,0.982574463,0.161575317
7416.995834,0.4815979,0.896209717,0.156661987
7426.657834,0.445587158,0.799682617,0.140686035
7436.347833,0.432052612,0.732650757,0.115524292
7446.022834,0.426986694,0.691680908,0.08757019
7455.715834,0.433395386,0.669631958,0.065567017
7465.400833,0.446487427,0.664016724,0.044494629
7475.082833,0.46446228,0.657455444,0.018692017
7484.781834,0.477828979,0.657455444,-0.001678467
7494.465834,0.489440918,0.651947021,-0.004989624
7504.143833,0.501312256,0.645172119,-0.008285522
7513.832834,0.518188477,0.642105103,-0.012191772
7523.517833,0.546615601,0.652679443,-0.0131073
7533.200833,0.569488525,0.658172607,-0.01864624
7542.885833,0.582580566,0.669784546,-0.028259277
7552.569834,0.601806641,0.676177979,-0.039306641
7562.240834,0.626800537,0.675201416,-0.065811157
7571.936834,0.643432617,0.672546387,-0.081344604
7581.619834,0.651199341,0.647705078,-0.103363037
7591.294833,0.678771973,0.615600586,-0.144866943
7600.986833,0.702590942,0.581283569,-0.177993774
7610.670833,0.723693848,0.549224854,-0.181655884
7620.355834,0.739578247,0.519790649,-0.165985107
7630.038834,0.752304077,0.508285522,-0.139160156
7639.723834,0.758743286,0.512573242,-0.116378784
7649.376833,0.757202148,0.526306152,-0.067123413
7659.089834,0.746780396,0.530456543,-0.047851563
7668.755833,0.726242065,0.535766602,-0.051742554
7678.457833,0.699615479,0.54347229,-0.067245483
7688.140833,0.677276611,0.559844971,-0.111526489
7697.807834,0.67388916,0.548995972,-0.303894043
7707.505833,0.713943481,0.502212524,-0.680709839
7717.189834,0.75088501,0.505523682,-0.602203369
7726.861834,0.729064941,0.616455078,-0.193984985
7736.557834,0.703384399,0.737670898,0.032150269
7746.241833,0.725738525,0.787536621,0.081298828
7755.917833,0.795394897,0.877105713,-0.016799927
7765.611833,0.895446777,0.931030273,-0.262481689
7775.288833,1.003875732,0.931335449,-0.445861816
7784.976833,1.110824585,0.848587036,-0.451187134
7794.658833,1.200027466,0.756347656,-0.353317261
7804.314833,1.249221802,0.755630493,-0.365127563
7814.025834,1.224472046,0.857925415,-0.356445313
7823.710834,1.112579346,0.954559326,-0.277557373
7833.366833,1.007415771,0.980331421,-0.163497925
7843.071834,0.915817261,1.004760742,-0.079940796
7852.727833,0.838195801,1.004852295,-0.010604858
7862.431833,0.806365967,1.062911987,0.090759277
7872.121834,0.772460938,1.119400024,0.150924683
7881.789834,0.71295166,1.103744507,0.155380249
7891.472834,0.660797119,1.029876709,0.157287598
7901.158834,0.602203369,0.89781189,0.134521484
7910.841833,0.503295898,0.758392334,0.175842285
7920.523834,0.454971313,0.627075195,0.247955322
7930.199833,0.450332642,0.595306396,0.277587891
7939.907834,0.482696533,0.64932251,0.297653198
7949.591834,0.523162842,0.705505371,0.182571411
7959.274833,0.550003052,0.718078613,0.184844971
7968.956834,0.558731079,0.749298096,0.182144165
7978.641833,0.656997681,0.689758301,0.496932983
7988.324833,0.635360718,0.785110474,0.586883545
7997.979834,0.625579834,0.839050293,0.636291504
8007.683834,0.600311279,0.899749756,0.56791687
8017.370833,0.566101074,0.962524414,0.446289063
8027.031833,0.549591064,0.930877686,0.321578979
8036.734833,0.542190552,0.829879761,0.239562988
8046.415834,0.543792725,0.733230591,0.173492432
8056.086834,0.561950684,0.67199707,0.12663269
8065.778834,0.591995239,0.641311646,0.101196289
8075.460834,0.619537354,0.616577148,0.08946228
8085.128833,0.658432007,0.586013794,0.079071045
8094.823834,0.693023682,0.545303345,0.057754517
8104.504833,0.712814331,0.49446106,0.003387451
8114.187834,0.71875,0.419937134,-0.162536621
8123.867833,0.712219238,0.355026245,-0.292816162
8133.537833,0.689300537,0.34437561,-0.286071777
8143.233833,0.634368896,0.389953613,-0.237075806
8152.915833,0.556732178,0.487747192,-0.205886841
8162.590834,0.484329224,0.568130493,-0.169677734
8172.281834,0.446899414,0.608428955,-0.160263062
8181.961833,0.438751221,0.623687744,-0.132919312
8191.643833,0.467208862,0.61579895,-0.135513306
8201.332834,0.532470703,0.603790283,-0.113342285
8210.991834,0.607452393,0.577835083,-0.065216064
8220.686834,0.677001953,0.552383423,-0.051193237
8230.376834,0.728485107,0.576065063,-0.055496216
8240.059834,0.773376465,0.600494385,-0.058898926
8249.741834,0.806625366,0.634353638,-0.073120117
8259.393834,0.836975098,0.649017334,-0.082931519
8269.097834,0.858413696,0.648422241,-0.093902588
8278.786833,0.855361938,0.640563965,-0.101806641
8288.468833,0.829559326,0.63117981,-0.105514526
8298.125833,0.805892944,0.630065918,-0.128875732
8307.834834,0.685821533,0.795883179,0.115432739
8317.516834,0.815612793,0.57875061,0.247299194
8327.171833,0.970413208,0.50920105,0.168441772
8336.881834,1.050949097,0.575973511,-0.010437012
8346.564834,1.191711426,0.633377075,-0.071334839
8356.219833,1.265426636,0.667678833,-0.094009399
8365.928834,1.22543335,0.704071045,-0.23840332
8375.611834,1.060699463,0.788238525,-0.402511597
8385.274834,0.949981689,0.916610718,-0.507919312
8394.963833,1.05241394,0.960632324,-0.391799927
8404.653833,1.186935425,1.02381897,-0.189193726
8414.330834,1.231033325,1.077774048,-0.037445068
8424.016833,1.224349976,1.074737549,0.007888794
8433.710833,1.18598938,0.988754272,0.028121948
8443.400834,1.071502686,0.840698242,0.079147339
8453.082834,0.90737915,0.763031006,0.194213867
8462.761833,0.782775879,0.718933105,0.313537598
8472.448834,0.684661865,0.691513062,0.402709961
8482.132833,0.63104248,0.64855957,0.45791626
8491.812834,0.562225342,0.642425537,0.488616943
8501.496833,0.524978638,0.615112305,0.495056152
8511.179833,0.530715942,0.587844849,0.482009888
8520.852833,0.53314209,0.617507935,0.473373413
8530.542834,0.577850342,0.659713745,0.458251953
8540.224834,0.645355225,0.719360352,0.446655273
8549.898833,0.684555054,0.801681519,0.440460205
8559.589834,0.688140869,0.879379272,0.444259644
8569.272834,0.644927979,0.938430786,0.436065674
8578.954834,0.585571289,0.940124512,0.407333374
8588.629833,0.533401489,0.880645752,0.347991943
8598.320833,0.503707886,0.795913696,0.259613037
8608.003833,0.483184814,0.723846436,0.174041748
8617.686833,0.488388062,0.663299561,0.094467163
8627.342834,0.525863647,0.611495972,0.020584106
8637.049833,0.545806885,0.575912476,-0.023956299
8646.732833,0.541915894,0.562149048,-0.035720825
8656.395833,0.545928955,0.576065063,-0.047225952
8666.100833,0.608734131,0.571655273,-0.248168945
8675.783833,0.731689453,0.569976807,-0.898742676
8685.456834,0.749725342,0.508392334,-0.8256073
8695.150834,0.561279297,0.411941528,-0.176986694
8704.835834,0.424362183,0.404495239,0.024581909
8714.517834,0.369674683,0.455108643,0.049255371
8724.200834,0.393630981,0.547058105,0.054901123
8733.883833,0.45916748,0.626098633,0.062438965
8743.567833,0.537811279,0.668502808,0.055221558
8753.250833,0.596313477,0.686599731,0.037094116
8762.901833,0.634368896,0.674819946,-0.002365112
8772.614833,0.662689209,0.6328125,-0.031829834
8782.297833,0.685134888,0.581314087,-0.053878784
8791.954834,0.703262329,0.540252686,-0.064819336
8801.664833,0.707305908,0.51411438,-0.072875977
8811.347833,0.723449707,0.499588013,-0.087860107
8821.007833,0.745422363,0.490127563,-0.129043579
8830.714834,0.784561157,0.461959839,-0.218307495
8840.396834,0.870437622,0.378036499,-0.505355835
8850.071833,0.951034546,0.298034668,-0.78062439
8859.760834,0.950027466,0.343673706,-0.606109619
8869.438833,0.846542358,0.518218994,-0.23916626
8879.113834,0.747817993,0.652954102,-0.030410767
8888.812833,0.704605103,0.714904785,0.038223267
8898.478834,0.6927948,0.768066406,0.045059204
8908.174834,0.706451416,0.818908691,0.069244385
8917.848833,0.739761353,0.909255981,0.127624512
8927.544833,0.784240723,1.013778687,0.162384033
8937.209834,0.880706787,1.079208374,0.112472534
8946.893834,1.018264771,1.050003052,-0.085754395
8956.566833,1.204833984,0.911117554,-0.647750854
8966.280834,1.321746826,0.771270752,-1.092651367
8975.964833,1.28112793,0.812866211,-0.898681641
8985.639833,1.190948486,0.937362671,-0.381271362
8995.323834,1.122787476,1.00769043,0.005279541
9005.017834,1.026611328,0.988693237,0.221511841
9014.694833,0.95350647,0.909667969,0.346054077
9024.386833,0.870849609,0.860061646,0.421203613
9034.070833,0.798156738,0.873596191,0.465408325
9043.754833,0.748977661,0.868453979,0.491577148
9053.438833,0.712997437,0.851699829,0.488723755
9063.124834,0.67855835,0.844558716,0.488845825
9072.807834,0.644393921,0.746444702,0.469985962
9082.492833,0.603408813,0.619354248,0.41973877
9092.156833,0.54675293,0.582458496,0.399856567
9101.860833,0.53704834,0.603622437,0.398513794
9111.546834,0.571456909,0.659637451,0.419708252
9121.208834,0.641159058,0.726135254,0.450744629
9130.915833,0.736022949,0.799621582,0.487411499
9140.599833,0.825286865,0.860031128,0.495513916
9150.269833,0.884017944,0.881393433,0.479278564
9159.969834,0.887268066,0.86958313,0.435714722
9169.654833,0.847488403,0.821426392,0.358200073
9179.331834,0.784423828,0.747390747,0.264541626
9189.023833,0.730285645,0.664352417,0.176422119
9198.701833,0.699981689,0.580368042,0.114440918
9208.389834,0.676803589,0.519180298,0.083938599
9218.072834,0.6690979,0.49005127,0.058959961
9227.745834,0.665466309,0.473464966,0.051147461
9237.439834,0.66633606,0.447296143,0.031204224
9247.123833,0.660522461,0.416900635,0.026596069
9256.804834,0.636230469,0.368530273,0.018707275
9266.487833,0.608001709,0.323760986,-0.004882813
9276.162833,0.610748291,0.318939209,-0.045379639
9285.844833,0.619827271,0.361114502,-0.084121704
9295.542834,0.628540039,0.401535034,-0.128219604
9305.228833,0.609771729,0.439788818,-0.157363892
9314.903833,0.581420898,0.478683472,-0.174224854
9324.597833,0.563583374,0.517211914,-0.175094604
9334.281834,0.568481445,0.556472778,-0.159194946
9343.966834,0.600708008,0.574523926,-0.126739502
9353.579959,0.654342651,0.57019043,-0.086334229
9363.238959,0.703155518,0.555389404,-0.063278198
9372.951958,0.741027832,0.545883179,-0.040145874
9382.634958,0.76776123,0.560897827,-0.024124146
9392.291958,0.790023804,0.583679199,-0.017578125
9401.983959,0.800598145,0.606521606,-0.014144897
9411.656958,0.819519043,0.617019653,-0.013320923
9421.344959,0.815917969,0.626647949,-0.004776001
9431.049959,0.79284668,0.659805298,-0.00227356
9440.717958,0.766067505,0.700668335,-0.016479492
9450.418958,0.7681427,0.729675293,-0.029129028
9460.086959,0.809295654,0.742477417,-0.029525757
9469.770959,0.905258179,0.740203857,-0.032348633
9479.465958,1.02230835,0.759307861,-0.014892578
9489.156959,1.105789185,0.81590271,0.012527466
9498.840958,1.159881592,0.817123413,0.039016724
9508.523958,1.216491699,0.769958496,0.055923462
9518.204958,1.262405396,0.733963013,0.037017822
9527.888958,1.277999878,0.75692749,-0.026550293
9537.571958,1.28175354,0.87928772,-0.097061157
9547.255958,1.295303345,0.991729736,-0.110977173
9556.933958,1.270935059,1.067123413,-0.065093994
9566.624959,1.180633545,1.031173706,0.026931763
9576.308959,1.049682617,0.930221558,0.112182617
9585.986959,0.896743774,0.821807861,0.157775879
9595.677958,0.748962402,0.718795776,0.193969727
9605.356958,0.626571655,0.639968872,0.222595215
9615.036959,0.534011841,0.588821411,0.239379883
9624.728959,0.469192505,0.56628418,0.265991211
9634.413958,0.424972534,0.5859375,0.293823242
9644.090958,0.414993286,0.648803711,0.325286865
9653.781958,0.445281982,0.730422974,0.347259521
9663.467959,0.502716064,0.826660156,0.358688354
9673.153959,0.554672241,0.941665649,0.366500854
9682.818958,0.600250244,1.034225464,0.368209839
9692.522958,0.6277771,1.085250854,0.362045288
9702.206959,0.631103516,1.067123413,0.351074219
9711.889959,0.611236572,0.972244263,0.324630737
9721.545958,0.579742432,0.829986572,0.283065796
9731.257959,0.555541992,0.7159729,0.224395752
9740.941958,0.537567139,0.630615234,0.165176392
9750.598959,0.540939331,0.563339233,0.11857605
9760.310958,0.566238403,0.515182495,0.08013916
9769.992958,0.594940186,0.476730347,0.0362854
9779.666959,0.620132446,0.455184937,-0.029083252
9789.358959,0.620788574,0.4402771,-0.062835693
9799.043959,0.614044189,0.435806274,-0.114135742
9808.714959,0.614501953,0.470504761,-0.278015137
9818.412958,0.63420105,0.503387451,-0.501739502
9828.097958,0.624755859,0.517074585,-0.524856567
9837.782959,0.553878784,0.458618164,-0.302932739
9847.469958,0.463684082,0.407211304,-0.089553833
9857.135959,0.435028076,0.426544189,0.01373291
9866.839959,0.490356445,0.499389648,0.053955078
9876.523959,0.554336548,0.566009521,0.08392334
9886.188958,0.592712402,0.591918945,0.128448486
9895.862958,0.617431641,0.586914063,0.157531738
9905.574958,0.633590698,0.565490723,0.147888184
9915.240959,0.641571045,0.535568237,0.102508545
9924.941958,0.654891968,0.497131348,0.028594971
9934.619959,0.680404663,0.476867676,-0.058853149
9944.289959,0.735748291,0.476028442,-0.214935303
9953.974958,0.822113037,0.471679688,-0.464096069
9963.659958,0.899932861,0.456710815,-0.612289429
9973.342958,0.932525635,0.460403442,-0.508071899
9983.028959,0.911849976,0.531570435,-0.256057739
9992.715958,0.860183716,0.666763306,-0.055435181
10002.41696,0.795349121,0.789932251,0.05368042
10012.09996,0.732421875,0.850830078,0.100830078
10021.78296,0.688278198,0.876434326,0.104415894
10031.46796,0.681945801,0.93019104,0.109939575
10041.15396,0.718139648,1.037567139,0.126907349
10050.83096,0.800430298,1.147232056,0.040237427
10060.52096,0.939605713,1.213088989,-0.283172607
10070.20596,1.150741577,1.069061279,-0.598907471
10079.86196,1.292495728,0.803451538,-0.715789795
10089.57396,1.204833984,0.663375854,-0.607284546
10099.25596,1.102035522,0.720352173,-0.322601318
10108.93496,1.102767944,0.777511597,-0.015914917
10118.62696,1.126846313,0.843215942,0.196136475
10128.30796,1.104354858,0.953796387,0.296524048
10137.98796,1.022262573,1.027908325,0.331420898
10147.67696,0.904891968,1.013397217,0.395950317
10157.36096,0.803131104,0.914321899,0.45249939
10167.04396,0.714401245,0.814407349,0.414718628
10176.72796,0.652954102,0.756454468,0.374542236
10186.38996,0.599945068,0.733398438,0.376968384
10196.09796,0.567733765,0.683776855,0.4012146
10205.78196,0.540206909,0.567077637,0.417251587
10215.44296,0.461807251,0.483764648,0.416656494
10225.14996,0.386550903,0.490112305,0.451370239
10234.83696,0.404037476,0.51133728,0.487747192
10244.50696,0.505477905,0.554870605,0.532196045
10254.20596,0.620040894,0.62890625,0.566085815
10263.88896,0.716995239,0.738021851,0.571212769
10273.56596,0.813796997,0.858642578,0.541900635
10283.25896,0.902877808,0.945510864,0.464569092
10292.92696,0.950576782,0.938491821,0.362579346
10302.62696,0.935791016,0.822982788,0.230819702
10312.30896,0.882995605,0.692108154,0.101516724
10321.97996,0.808288574,0.633224487,-0.049591064
10331.66596,0.721038818,0.609161377,-0.200668335
10341.33996,0.682342529,0.59185791,-0.318649292
10351.01196,0.699478149,0.557037354,-0.343978882
10360.71596,0.738174438,0.54119873,-0.179122925
10370.39696,0.759124756,0.541229248,0.000991821
10380.07996,0.75151062,0.524017334,0.094696045
10389.77896,0.715393066,0.478378296,0.126190186
10399.43296,0.66293335,0.423873901,0.134490967
10409.12596,0.605407715,0.386947632,0.135772705
10418.82996,0.556259155,0.37059021,0.121551514
10428.48696,0.520584106,0.375732422,0.104995728
10438.18996,0.504501343,0.394119263,0.095275879
10447.85796,0.513656616,0.421798706,0.098312378
10457.55196,0.538909912,0.46321106,0.111114502
10467.22196,0.571472168,0.513458252,0.113952637
10476.91496,0.610519409,0.555374146,0.114334106
10486.60296,0.646697998,0.584030151,0.100570679
10496.28296,0.676925659,0.606872559,0.066680908
10505.96496,0.690536499,0.634033203,0.016799927
10515.64396,0.72038269,0.64239502,-0.036331177
10525.35196,0.762283325,0.639450073,-0.086532593
10535.03696,0.816711426,0.613311768,-0.149963379
10544.69596,0.866012573,0.597045898,-0.25479126
10554.32496,0.893798828,0.593856812,-0.357055664
10564.00896,0.889816284,0.601882935,-0.38923645
10573.70196,0.864471436,0.602081299,-0.333267212
10583.37796,0.865600586,0.581924438,-0.20904541
10593.07196,0.886566162,0.555984497,-0.092071533
10602.74696,0.910858154,0.577728271,-0.022644043
10612.44996,0.962142944,0.594787598,0.04095459
10622.13396,1.007598877,0.600372314,0.095687866
10631.80796,1.028274536,0.602264404,0.137771606
10641.50296,1.048049927,0.575424194,0.164291382
10651.18596,1.096618652,0.557861328,0.155029297
10660.86796,1.153808594,0.589324951,0.091369629
10670.55196,1.181533813,0.677871704,-0.016860962
10680.23596,1.222229004,0.780197144,-0.097457886
10689.91996,1.28338623,0.865722656,-0.10786438
10699.60396,1.314331055,0.947067261,-0.083282471
10709.26196,1.354278564,1.012283325,-0.01399231
10718.96896,1.368423462,1.02645874,0.11328125
10728.65896,1.262741089,0.969451904,0.238876343
10738.31396,1.0493927,0.855880737,0.304000854
10748.02996,0.836349487,0.73500061,0.316253662
10757.71596,0.662963867,0.645675659,0.31111145
10767.37496,0.544784546,0.59513855,0.307479858
10777.08796,0.468139648,0.585067749,0.321166992
10786.77396,0.409301758,0.608581543,0.354812622
10796.44596,0.385070801,0.657928467,0.395126343
10806.14396,0.404098511,0.719482422,0.430618286
10815.82896,0.439926147,0.795227051,0.4715271
10825.51496,0.484985352,0.881088257,0.508102417
10835.19996,0.529037476,0.961929321,0.55305481
10844.88596,0.560348511,1.009109497,0.573272705
10854.57096,0.558868408,0.992980957,0.549224854
10864.25696,0.555007935,0.941925049,0.487838745
10873.94196,0.550628662,0.838775635,0.37121582
10883.62696,0.53263855,0.734008789,0.260314941
10893.31396,0.537460327,0.653671265,0.188690186
10902.99896,0.571838379,0.60144043,0.149215698
10912.68296,0.607650757,0.567626953,0.099029541
10922.36196,0.665924072,0.543106079,0.032577515
10932.02696,0.734710693,0.538345337,-0.061004639
10941.73896,0.841644287,0.510742188,-0.372665405
10951.42396,0.962188721,0.414505005,-0.806365967
10961.10196,0.944824219,0.327957153,-0.751998901
10970.79496,0.745788574,0.317840576,-0.328979492
10980.47896,0.571456909,0.347595215,0.007873535
10990.14596,0.470321655,0.40322876,0.148651123
10999.81996,0.439804077,0.466720581,0.16835022
11009.52396,0.435882568,0.520339966,0.171005249
11019.19896,0.449539185,0.564117432,0.182418823
11028.87196,0.478729248,0.598098755,0.195678711
11038.55196,0.509277344,0.60395813,0.19694519
11048.23796,0.544723511,0.595245361,0.190109253
11057.94496,0.585739136,0.576889038,0.154632568
11067.62996,0.633178711,0.555740356,0.093811035
11077.29596,0.682739258,0.539779663,0.000991821
11086.97996,0.74949646,0.527587891,-0.153427124
11096.67096,0.829269409,0.478149414,-0.392852783
11106.35096,0.900543213,0.420516968,-0.573196411
11116.05196,0.922927856,0.39906311,-0.576263428
11125.73396,0.879226685,0.449478149,-0.443572998
11135.42196,0.799713135,0.554428101,-0.240600586
11145.10896,0.725021362,0.637374878,-0.064163208
11154.79296,0.666397095,0.655853271,0.01914978
11164.47696,0.640029907,0.639434814,0.062973022
11174.13596,0.649719238,0.649047852,0.094711304
11183.84696,0.693008423,0.701599121,0.124832153
11193.53196,0.749252319,0.789901733,0.143615723
11203.20296,0.814285278,0.887832642,0.16027832
11212.90196,0.905090332,0.959960938,0.12171936
11222.58696,1.090408325,0.965866089,-0.133453369
11232.27196,1.406234741,0.868621826,-0.686157227
11241.95596,1.622573853,0.776504517,-0.993835449
11251.63796,1.517913818,0.825271606,-0.719619751
11261.31396,1.335739136,0.910003662,-0.310623169
11271.00796,1.276565552,0.97517395,-0.00730896
11280.67296,1.264404297,0.99697876,0.164199829
11290.37396,1.20211792,1.006240845,0.289962769
11300.05896,1.110855103,1.028747559,0.401046753
11309.74296,1.020431519,0.9740448,0.400939941
11319.42696,0.87298584,0.876876831,0.389877319
11329.11096,0.748275757,0.812042236,0.425033569
11338.77796,0.676025391,0.768600464,0.463012695
11348.47596,0.638931274,0.716873169,0.459213257
11358.15896,0.56022644,0.621246338,0.393890381
11367.83096,0.440246582,0.58821106,0.321350098
11377.52696,0.396209717,0.575698853,0.331100464
11387.20996,0.413101196,0.580459595,0.351882935
11396.86596,0.462005615,0.632339478,0.395599365
11406.55796,0.526412964,0.720825195,0.464645386
11416.26096,0.584503174,0.82699585,0.504241943
11425.93496,0.639022827,0.92489624,0.498138428
11435.62696,0.679519653,0.986495972,0.463363647
11445.30996,0.683654785,0.968887329,0.392822266
11454.98796,0.656890869,0.874603271,0.300598145
11464.67796,0.613525391,0.759429932,0.231491089
11474.36096,0.578582764,0.666229248,0.177993774
11484.04496,0.558456421,0.610290527,0.136932373
11493.72896,0.556884766,0.583602905,0.103012085
11503.41196,0.568817139,0.574630737,0.083465576
11513.07296,0.589309692,0.567840576,0.060348511
11522.76396,0.614761353,0.55632019,0.042419434
11532.44296,0.646606445,0.536392212,0.029876709
11542.13096,0.654327393,0.481796265,0.027877808
11551.81396,0.657287598,0.409637451,0.006393433
11561.49996,0.661590576,0.359649658,-0.035446167
11571.19896,0.666976929,0.332397461,-0.104248047
11580.88396,0.683166504,0.293579102,-0.362335205
11590.55396,0.690490723,0.27180481,-0.600891113
11600.25096,0.703445435,0.375183105,-0.394012451
11609.92696,0.708755493,0.478225708,-0.122238159
11619.62096,0.707443237,0.513092041,0.004867554
11629.30596,0.716400146,0.515090942,0.050582886
11638.98796,0.716018677,0.534973145,0.057235718
11648.67096,0.712753296,0.561187744,0.050964355
11658.35096,0.722427368,0.581481934,0.04977417
11668.03296,0.746246338,0.588973999,0.048965454
11677.72096,0.773956299,0.589935303,0.045120239
11687.40296,0.798034668,0.588699341,0.029129028
11697.08496,0.813934326,0.598480225,-0.005523682
11706.77396,0.802734375,0.624786377,-0.09034729
11716.45796,0.771575928,0.655838013,-0.254302979
11726.13196,0.751617432,0.656402588,-0.370773315
11735.82796,0.773925781,0.620925903,-0.303527832
11745.51396,0.848617554,0.591049194,-0.147354126
11755.19196,0.939910889,0.589874268,-0.015258789
11764.88496,1.003997803,0.625320435,0.06640625
11774.56996,1.029586792,0.670669556,0.087036133
11784.24896,1.039672852,0.668121338,0.081756592
11793.93996,1.067886353,0.625747681,0.086456299
11803.62296,1.106887817,0.597045898,0.063156128
11813.30796,1.125915527,0.623397827,-0.017593384
11822.99296,1.127746582,0.731887817,-0.174194336
11832.67296,1.180618286,0.8777771,-0.331008911
11842.36496,1.276733398,0.937606812,-0.207458496
11852.05096,1.348678589,0.961776733,0.044265747
11861.72796,1.369628906,1.012283325,0.210525513
11871.35696,1.305099487,1.002716064,0.276687622
11881.04296,1.149719238,0.913742065,0.324905396
11890.70296,0.962646484,0.815444946,0.352294922
11900.41296,0.788803101,0.729217529,0.366668701
11910.08196,0.639755249,0.661270142,0.373718262
11919.75596,0.525817871,0.620620728,0.374679565
11929.46596,0.448699951,0.612411499,0.382293701
11939.15196,0.402908325,0.616439819,0.411178589
11948.82596,0.382034302,0.639389038,0.437026978
11958.52196,0.378067017,0.688446045,0.450286865
11968.20796,0.396209717,0.757415771,0.453857422
11977.88496,0.421035767,0.842575073,0.460220337
11987.57796,0.450790405,0.928237915,0.478637695
11997.26296,0.486343384,0.968505859,0.491394043
12006.94896,0.526397705,0.989425659,0.463775635
12016.63396,0.583282471,0.955459595,0.374130249
12026.32096,0.660400391,0.884460449,0.269302368
12035.99696,0.73928833,0.785171509,0.150772095
12045.68796,0.845458984,0.701385498,-0.04208374
12055.34796,0.985412598,0.627822876,-0.519348145
12065.05896,1.078353882,0.56628418,-0.99041748
12074.74396,0.962997437,0.494018555,-0.719833374
12084.42796,0.740966797,0.469543457,-0.240509033
12094.10296,0.567596436,0.475082397,0.055526733
12103.77796,0.468765259,0.47769165,0.174728394
12113.45796,0.415710449,0.466766357,0.204727173
12123.14296,0.39855957,0.44960022,0.210891724
12132.83496,0.383773804,0.449768066,0.206054688
12142.51996,0.385314941,0.459442139,0.184402466
12152.20496,0.391677856,0.460769653,0.163208008
12161.88996,0.424407959,0.461227417,0.130691528
12171.57396,0.470367432,0.481048584,0.082595825
12181.27596,0.524887085,0.534103394,0.008346558
12190.93496,0.587036133,0.582397461,-0.078857422
12200.64396,0.657318115,0.615142822,-0.158004761
12210.32696,0.718948364,0.611495972,-0.193374634
12219.99996,0.745574951,0.594696045,-0.190124512
12229.69396,0.731262207,0.562744141,-0.176025391
12239.37896,0.695663452,0.544006348,-0.172348022
12249.06096,0.67779541,0.522567749,-0.185623169
12258.74796,0.686508179,0.509521484,-0.210494995
12268.43296,0.712631226,0.507843018,-0.252593994
12278.10996,0.753860474,0.522659302,-0.289871216
12287.80196,0.788635254,0.556243896,-0.28817749
12297.48696,0.807785034,0.613189697,-0.222808838
12307.17496,0.797348022,0.697937012,-0.106018066
12316.83496,0.763931274,0.755157471,0.012008667
12326.52396,0.748596191,0.782592773,0.081222534
12336.22996,0.753616333,0.809112549,0.098251343
12345.91396,0.78678894,0.866760254,0.119567871
12355.57696,0.828582764,0.978027344,0.149078369
12365.27996,0.856430054,1.104782104,0.089035034
12374.96596,0.926544189,1.145095825,-0.14414978
12384.62796,1.106079102,1.095184326,-0.527114868
12394.33796,1.271331787,0.956558228,-0.700927734
12404.00996,1.219589233,0.86227417,-0.570205688
12413.70196,1.068878174,0.838729858,-0.344345093
12423.39696,1.012237549,0.844985962,-0.122238159
12433.08196,1.031341553,0.87286377,0.087432861
12442.76096,1.077575684,0.894271851,0.283554077
12452.45096,1.088195801,0.908843994,0.479187012
12462.13696,1.028030396,0.906066895,0.631622314
12471.82196,0.915039063,0.905685425,0.656494141
12481.50696,0.791854858,0.899200439,0.561630249
12491.19296,0.703399658,0.899505615,0.43939209
12500.87796,0.649581909,0.861831665,0.343994141
12510.56296,0.598464966,0.745391846,0.312332153
12520.21996,0.506439209,0.59753418,0.323822021
12529.93296,0.423568726,0.528701782,0.344482422
12539.61896,0.408630371,0.512985229,0.359634399
12549.30296,0.460769653,0.54598999,0.381210327
12558.97696,0.550003052,0.638687134,0.417037964
12568.67496,0.659942627,0.738479614,0.442321777
12578.34696,0.754333496,0.815826416,0.447250366
12588.04296,0.819259644,0.874267578,0.421417236
12597.70396,0.836395264,0.874847412,0.368621826
12607.40796,0.79750061,0.802703857,0.29397583
12617.08196,0.720657349,0.718673706,0.231994629
12626.75696,0.652282715,0.651870728,0.190582275
12636.45096,0.604690552,0.594146729,0.156860352
12646.14096,0.568252563,0.56161499,0.120407104
12655.83196,0.561752319,0.546463013,0.086929321
12665.50696,0.568954468,0.542541504,0.06439209
12675.19296,0.581481934,0.526977539,0.051925659
12684.89196,0.595611572,0.514953613,0.03918457
12694.57896,0.600219727,0.50592041,0.025741577
12704.26196,0.604736328,0.503250122,0.008071899
12713.92096,0.656646729,0.487304688,-0.005767822
12723.61896,0.670761108,0.448242188,-0.019287109
12733.31696,0.692398071,0.408889771,-0.0493927
12742.99096,0.726974487,0.406082153,-0.106765747
12752.68296,0.761474609,0.438140869,-0.194351196
12762.36796,0.7709198,0.493453979,-0.257919312
12772.05096,0.748153687,0.539962769,-0.261322021
12781.73596,0.731460571,0.558120728,-0.196640015
12791.41996,0.739318848,0.566040039,-0.108840942
12801.10496,0.749694824,0.575546265,-0.067596436
12810.75896,0.765075684,0.586303711,-0.053497314
12820.46296,0.7890625,0.590164185,-0.050537109
12830.15696,0.801483154,0.589904785,-0.054794312
12839.84196,0.800918579,0.589187622,-0.055999756
12849.52696,0.792404175,0.579681396,-0.068130493
12859.20996,0.786560059,0.570983887,-0.075134277
12868.89496,0.775741577,0.563644409,-0.08241272
12878.57796,0.784744263,0.566040039,-0.10710144
12888.26496,0.807174683,0.569152832,-0.124252319
12897.94896,0.846389771,0.565383911,-0.143600464
12907.62596,0.907669067,0.55581665,-0.13067627
12917.31796,0.981399536,0.544052124,-0.085525513
12926.98796,1.035797119,0.550003052,-0.042984009
12936.68896,1.064071655,0.545532227,0.015975952
12946.37396,1.081893921,0.516708374,0.062011719
12956.04096,1.099990845,0.484161377,0.086547852
12965.74096,1.123962402,0.484222412,0.065826416
12975.42696,1.166275024,0.526687622,0.013122559
12985.11196,1.161697388,0.649993896,-0.058349609
12994.79696,1.181167603,0.797088623,-0.107711792
13004.47996,1.226928711,0.917785645,-0.164962769
13014.14696,1.301345825,0.966522217,-0.161376953
13023.84896,1.321563721,1.010665894,-0.054824829
13033.53296,1.234436035,1.020721436,0.080795288
13043.21696,1.088272095,0.90788269,0.202789307
13052.87296,0.9012146,0.814224243,0.283233643
13062.58496,0.740722656,0.742126465,0.345825195
13072.26196,0.619186401,0.700714111,0.383880615
13081.95496,0.54145813,0.690872192,0.400421143
13091.62396,0.500274658,0.704956055,0.434844971
13101.32296,0.49055481,0.740158081,0.466781616
13111.00596,0.49772644,0.782806396,0.495254517
13120.68396,0.505950928,0.840713501,0.510253906
13130.36296,0.505493164,0.922653198,0.513763428
13140.05396,0.500457764,0.982910156,0.496017456
13149.73996,0.487426758,1.010040283,0.464706421
13159.40896,0.481613159,0.986938477,0.435653687
13169.09396,0.483444214,0.888442993,0.393005371
13178.78896,0.503540039,0.761367798,0.321594238
13188.78896,0.537185669,0.642303467,0.268661499
13198.41596,0.577682495,0.555953979,0.2162323
13208.09996,0.617233276,0.525436401,0.162185669
13217.75496,0.671905518,0.516845703,0.092895508
13227.46596,0.753051758,0.51234436,-0.048446655
13237.14296,0.868286133,0.504470825,-0.351791382
13246.81696,0.996276855,0.457107544,-0.788650513
13256.51296,0.955337524,0.396911621,-0.753326416
13266.19596,0.732574463,0.393356323,-0.371337891
13275.86596,0.5415802,0.440063477,-0.135604858
13285.55296,0.457595825,0.465789795,-0.020782471
13295.23796,0.432937622,0.477890015,0.052597046
13304.92096,0.430664063,0.492019653,0.109069824
13314.59596,0.438598633,0.514358521,0.164108276
13324.30596,0.470413208,0.529098511,0.192855835
13333.98896,0.519073486,0.524902344,0.199401855
13343.67296,0.573165894,0.540420532,0.193267822
13353.35396,0.633377075,0.587142944,0.161148071
13363.03996,0.687698364,0.625350952,0.099685669
13372.72196,0.741729736,0.65838623,0.020385742
13382.37596,0.790390015,0.674682617,-0.066574097
13392.08096,0.829833984,0.638412476,-0.149963379
13401.77196,0.835739136,0.585281372,-0.215103149
13411.43096,0.826248169,0.541427612,-0.246429443
13421.13996,0.817810059,0.520187378,-0.262588501
13430.82296,0.816757202,0.506591797,-0.284347534
13440.49896,0.836502075,0.479522705,-0.368011475
13450.18896,0.86126709,0.467376709,-0.4947052
13459.87196,0.858779907,0.514160156,-0.509887695
13469.55696,0.796508789,0.624511719,-0.317611694
13479.23996,0.728134155,0.70526123,-0.089035034
13488.92496,0.687927246,0.716445923,0.022384644
13498.61096,0.688461304,0.706420898,0.051559448
13508.29596,0.727935791,0.744384766,0.099487305
13517.96496,0.785797119,0.803466797,0.168106079
13527.66096,0.863372803,0.867385864,0.156707764
13537.34296,0.993347168,0.906356812,0.021133423
13547.01796,1.196487427,0.962493896,-0.348922729
13556.70396,1.334091187,0.97795105,-0.839172363
13566.38596,1.284835815,0.797042847,-1.012817383
13576.04096,1.141616821,0.614685059,-0.755325317
13585.74796,1.066543579,0.589492798,-0.406646729
13595.41996,1.043914795,0.621673584,-0.031967163
13605.10796,1.050811768,0.611846924,0.275588989
13614.79996,1.048370361,0.640457153,0.498672485
13624.48396,1.007476807,0.692596436,0.639022827
13634.16896,0.930587769,0.717956543,0.675827026
13643.85096,0.84979248,0.730300903,0.643386841
13653.52996,0.800842285,0.716262817,0.614562988
13663.22196,0.771621704,0.688079834,0.603851318
13672.90596,0.732757568,0.662017822,0.608016968
13682.57696,0.688323975,0.647079468,0.616821289
13692.27396,0.644088745,0.627532959,0.617874146
13701.95796,0.624252319,0.621383667,0.589187622
13711.62996,0.649505615,0.625289917,0.557662964
13721.32696,0.700073242,0.665939331,0.542556763
13731.01096,0.751831055,0.725402832,0.511367798
13740.68596,0.798934937,0.784927368,0.459793091
13750.37796,0.829269409,0.83430481,0.389221191
13760.06096,0.839050293,0.839096069,0.289840698
13769.73596,0.827346802,0.801010132,0.17868042
13779.40896,0.803634644,0.734649658,0.092910767
13789.08496,0.762069702,0.662322998,0.029968262
13798.76796,0.701675415,0.599517822,-0.035842896
13808.47896,0.652038574,0.530670166,-0.174575806
13818.15996,0.658248901,0.501190186,-0.435806274
13827.82796,0.641220093,0.47366333,-0.638916016
13837.51296,0.593582153,0.413467407,-0.567016602
13847.21396,0.616729736,0.395492554,-0.306167603
13856.88096,0.674911499,0.391159058,-0.089355469
13866.56696,0.707809448,0.399002075,0.008911133
13876.23996,0.711395264,0.417251587,0.06741333
13885.94996,0.691192627,0.421936035,0.101928711
13895.63296,0.668334961,0.435379028,0.125839233
13905.30796,0.654464722,0.44770813,0.137863159
13915.00296,0.649520874,0.464553833,0.142837524
13924.68696,0.650085449,0.476776123,0.145950317
13934.36296,0.653076172,0.479354858,0.139266968
13944.05296,0.66998291,0.483108521,0.12828064
13953.73596,0.694366455,0.492248535,0.114059448
13963.41996,0.727401733,0.510131836,0.091384888
13973.10496,0.761978149,0.521224976,0.057556152
13982.78796,0.793807983,0.533538818,0.011047363
13992.47296,0.819717407,0.552841187,-0.044677734
14002.15596,0.838287354,0.566940308,-0.084411621
14011.83196,0.84677124,0.581344604,-0.136947632
14021.52296,0.854202271,0.598403931,-0.207015991
14031.20496,0.858184814,0.601226807,-0.281463623
14040.86196,0.891189575,0.571090698,-0.324554443
14050.55896,0.996871948,0.475814819,-0.263381958
14060.25696,1.081344604,0.428451538,-0.146774292
14069.93096,1.097564697,0.463897705,-0.065124512
14079.62496,1.102493286,0.499862671,-0.013870239
14089.31096,1.110183716,0.508010864,0.022247314
14098.98696,1.109664917,0.506408691,0.014678955
14108.67696,1.111053467,0.510116577,-0.043045044
14118.35996,1.110198975,0.561126709,-0.111618042
14128.04396,1.137832642,0.643127441,-0.140487671
14137.72696,1.268417358,0.743240356,-0.131744385
14147.39096,1.426483154,0.8387146,-0.058563232
14157.09496,1.474487305,0.936828613,0.047576904
14166.77996,1.430862427,0.926040649,0.165786743
14176.46296,1.298751831,0.81892395,0.276931763
14186.14696,1.09413147,0.724334717,0.350784302
14195.82996,0.885559082,0.648864746,0.395401001
14205.48696,0.734298706,0.60748291,0.419113159
14215.19696,0.64112854,0.606430054,0.444519043
14224.87896,0.592544556,0.635955811,0.470184326
14234.55696,0.577041626,0.709320068,0.500152588
14244.24696,0.600219727,0.8203125,0.508804321
14253.92196,0.623931885,0.920608521,0.506652832
14263.61296,0.641418457,0.9921875,0.50112915
14273.29696,0.645874023,1.003051758,0.481079102
14282.97996,0.620300293,0.989685059,0.481140137
14292.66696,0.596450806,0.94190979,0.501403809
14302.32796,0.596191406,0.842727661,0.485458374
14312.00796,0.606216431,0.724731445,0.434661865
14321.71396,0.602340698,0.663757324,0.386154175
14331.38996,0.594055176,0.618286133,0.33114624
14341.05496,0.601531982,0.58303833,0.278457642
14350.74996,0.608551025,0.555328369,0.224624634
14360.36546,0.624313354,0.530151367,0.172149658
14370.06346,0.648040771,0.496566772,0.136520386
14379.73346,0.696746826,0.453521729,0.063064575
14389.43246,0.760696411,0.405181885,-0.068161011
14399.09846,0.814849854,0.35987854,-0.371856689
14408.80146,0.833358765,0.317276001,-0.830856323
14418.48546,0.768463135,0.309188843,-0.904541016
14428.17046,0.668899536,0.371063232,-0.49899292
14437.85446,0.568008423,0.451766968,-0.126098633
14447.54046,0.538619995,0.485183716,0.078735352
14457.21246,0.550796509,0.510848999,0.186630249
14466.90946,0.559249878,0.522125244,0.237991333
14476.57546,0.566574097,0.542663574,0.284484863
14486.27746,0.58442688,0.561203003,0.310394287
14495.96146,0.612945557,0.575241089,0.310699463
14505.62746,0.640853882,0.583114624,0.269332886
14515.26546,0.676055908,0.585128784,0.197967529
14524.95046,0.720230103,0.571533203,0.114761353
14534.60246,0.766815186,0.542602539,-0.00692749
14544.31646,0.819641113,0.501556396,-0.175231934
14553.99546,0.894332886,0.455703735,-0.433883667
14563.68546,0.948791504,0.417404175,-0.639938354
14573.37046,0.951477051,0.473297119,-0.592178345
14583.05546,0.889297485,0.592453003,-0.355438232
14592.73046,0.810852051,0.699356079,-0.074432373
14602.42446,0.751327515,0.73197937,0.101013184
14612.10946,0.714477539,0.703964233,0.173233032
14621.78646,0.696929932,0.663223267,0.182632446
14631.46146,0.71534729,0.654876709,0.17388916
14641.16246,0.791763306,0.664871216,0.144119263
14650.84546,0.945556641,0.714279175,0.048461914
14660.52846,1.139419556,0.788803101,-0.166870117
14670.21246,1.303268433,0.802764893,-0.399703979
14679.89646,1.35256958,0.748001099,-0.521728516
14689.58146,1.300552368,0.701965332,-0.450790405
14699.24446,1.178939819,0.755981445,-0.233276367
14708.94946,1.085708618,0.864990234,0.007049561
14718.63646,1.048751831,0.943710327,0.212722778
14728.29746,1.00718689,0.978134155,0.337860107
14738.00646,0.938598633,0.953399658,0.390518188
14747.69146,0.856277466,0.887908936,0.408981323
14757.36746,0.762237549,0.799514771,0.401351929
14767.05946,0.666442871,0.705490112,0.380966187
14776.74546,0.593917847,0.656280518,0.357254028
14786.43046,0.564407349,0.625930786,0.339157104
14796.11546,0.562423706,0.611679077,0.348098755
14805.80146,0.585784912,0.612258911,0.37701416
14815.48546,0.61706543,0.632263184,0.415115356
14825.17146,0.659378052,0.671173096,0.430801392
14834.85646,0.711639404,0.716903687,0.420669556
14844.54046,0.784561157,0.755767822,0.417007446
14854.22446,0.863952637,0.770111084,0.426254272
14863.88746,0.91305542,0.767425537,0.429824829
14873.59146,0.918655396,0.760177612,0.413360596
14883.27746,0.877426147,0.735137939,0.376220703
14892.93546,0.812927246,0.707733154,0.324188232
14902.64646,0.751296997,0.680908203,0.279296875
14912.33046,0.69720459,0.661376953,0.232666016
14922.00646,0.654891968,0.637893677,0.19229126
14931.69746,0.615692139,0.604934692,0.150375366
14941.38346,0.592071533,0.566055298,0.107009888
14951.06946,0.584106445,0.511672974,0.080718994
14960.75046,0.574737549,0.455474854,0.061462402
14970.41846,0.575393677,0.413848877,0.045639038
14980.12046,0.577804565,0.386856079,0.03338623
14989.80346,0.595962524,0.369689941,0.027694702
14999.49246,0.617538452,0.357284546,0.015075684
15009.15946,0.6512146,0.352233887,-0.006378174
15018.84546,0.67817688,0.369155884,-0.037185669
15028.52946,0.689834595,0.407714844,-0.066970825
15038.21646,0.688262939,0.453933716,-0.085678101
15047.91746,0.692016602,0.492736816,-0.100082397
15057.58346,0.715637207,0.513870239,-0.109130859
15067.28446,0.747924805,0.511993408,-0.110214233
15076.97146,0.785934448,0.497711182,-0.105407715
15086.64746,0.816375732,0.486572266,-0.103973389
15096.33846,0.846511841,0.480667114,-0.110321045
15106.02446,0.873046875,0.483413696,-0.118133545
15115.71046,0.894363403,0.481430054,-0.126525879
15125.39446,0.90687561,0.490921021,-0.131347656
15135.07946,0.910308838,0.500930786,-0.13117981
15144.76446,0.901809692,0.509002686,-0.130996704
15154.44946,0.873031616,0.506164551,-0.131454468
15164.11746,0.830490112,0.504989624,-0.136627197
15173.81846,0.795288086,0.502151489,-0.125808716
15183.50346,0.799926758,0.51071167,-0.10496521
15193.17146,0.835754395,0.519317627,-0.069747925
15202.87446,0.890533447,0.525268555,-0.032592773
15212.56046,0.951675415,0.539962769,0.015640259
15222.23546,0.999588013,0.566879272,0.053268433
15231.93046,1.046188354,0.589538574,0.084594727
15241.61446,1.081832886,0.582839966,0.106369019
15251.29246,1.107879639,0.554916382,0.09677124
15260.98446,1.131195068,0.543014526,0.045837402
15270.66846,1.155212402,0.588912964,-0.029495239
15280.35346,1.184112549,0.68522644,-0.091766357
15290.01546,1.247924805,0.78678894,-0.134460449
15299.72046,1.308013916,0.849273682,-0.123443604
15309.41146,1.327575684,0.870681763,-0.063323975
15319.09546,1.277313232,0.845077515,0.027984619
15328.76146,1.167434692,0.802032471,0.107910156
15338.46746,0.999084473,0.736633301,0.173294067
15348.15246,0.833618164,0.666229248,0.224945068
15357.81446,0.708816528,0.61567688,0.262802124
15367.51846,0.636932373,0.597167969,0.296478271
15377.20646,0.595596313,0.615982056,0.31578064
15386.88246,0.581283569,0.661621094,0.331115723
15396.57746,0.592224121,0.725753784,0.350967407
15406.26346,0.620651245,0.805450439,0.366226196
15415.94846,0.657150269,0.894378662,0.379440308
15425.63246,0.68788147,0.979019165,0.37727356
15435.31646,0.70803833,1.049575806,0.37878418
15445.00146,0.690841675,1.100296021,0.391601563
15454.68646,0.646057129,1.040313721,0.380218506
15464.35046,0.611251831,0.88369751,0.345626831
15474.05246,0.589035034,0.729019165,0.32371521
15483.72946,0.561050415,0.614456177,0.307052612
15493.40346,0.546310425,0.549331665,0.299942017
15503.10046,0.536773682,0.508285522,0.276184082
15512.78446,0.536712646,0.46661377,0.241592407
15522.46746,0.54006958,0.459899902,0.211868286
15532.13846,0.546844482,0.456176758,0.176757813
15541.82346,0.560745239,0.459121704,0.141571045
15551.51546,0.583343506,0.471740723,0.095840454
15561.20546,0.615493774,0.479751587,0.025665283
15570.88746,0.662567139,0.489120483,-0.091323853
15580.57246,0.750152588,0.493911743,-0.342437744
15590.25546,0.804550171,0.50692749,-0.750732422
15599.90946,0.797317505,0.530303955,-0.870529175
15609.61846,0.724594116,0.543884277,-0.512252808
15619.30246,0.640365601,0.5574646,-0.171142578
15628.98146,0.585861206,0.583389282,0.023757935
15638.66946,0.588226318,0.623016357,0.121765137
15648.35146,0.624282837,0.655975342,0.185501099
15658.01546,0.669036865,0.677368164,0.233001709
15667.71946,0.704696655,0.671508789,0.249465942
15677.40346,0.729812622,0.661712646,0.239624023
15687.06846,0.754470825,0.641036987,0.180114746
15696.76646,0.773132324,0.614059448,0.085571289
15706.45246,0.797103882,0.587509155,-0.054016113
15716.12846,0.833786011,0.541793823,-0.276947021
15725.81846,0.890731812,0.459014893,-0.588897705
15735.50146,0.947967529,0.455291748,-0.719268799
15745.18346,0.944213867,0.569839478,-0.537353516
15754.86646,0.862564087,0.734130859,-0.221710205
15764.55146,0.778930664,0.79234314,0.029891968
15774.22646,0.697357178,0.728424072,0.155319214
15783.91746,0.640045166,0.627670288,0.209472656
15793.60146,0.632553101,0.557128906,0.249008179
15803.28446,0.686065674,0.588684082,0.290328979
15812.96846,0.812103271,0.723342896,0.283966064
15822.64046,1.022323608,0.847610474,-0.029281616
15832.33446,1.325790405,0.859893799,-0.690261841
15842.01746,1.53453064,0.75328064,-1.336257935
15851.68646,1.472351074,0.642715454,-1.178131104
15861.38446,1.298095703,0.704605103,-0.505142212
15871.06946,1.170089722,0.836517334,0.017776489
15880.74646,1.05506897,0.887039185,0.301208496
15890.43646,0.946029663,0.81463623,0.447555542
15900.11446,0.866760254,0.691970825,0.435333252
15909.77746,0.771209717,0.621917725,0.413040161
15919.48946,0.66468811,0.607635498,0.421218872
15929.16446,0.570648193,0.59576416,0.412521362
15938.83046,0.515426636,0.603225708,0.387252808
15948.53446,0.499832153,0.630615234,0.383071899
15958.20646,0.522323608,0.669754028,0.415649414
15967.88646,0.55960083,0.710113525,0.465362549
15977.56546,0.604705811,0.757736206,0.521530151
15987.26746,0.642028809,0.809814453,0.552139282
15996.93746,0.686309814,0.850189209,0.549789429
16006.62146,0.734329224,0.869140625,0.534225464
16016.31246,0.801086426,0.891494751,0.51385498
16026.00446,0.8671875,0.897445679,0.485412598
16035.68846,0.896591187,0.865661621,0.434341431
16045.37246,0.894638062,0.813140869,0.362442017
16055.05746,0.876419067,0.749542236,0.283340454
16064.74146,0.843551636,0.699371338,0.203063965
16074.42646,0.810424805,0.65032959,0.139587402
16084.10946,0.777435303,0.598114014,0.093948364
16093.79546,0.743087769,0.552749634,0.060195923
16103.47346,0.711578369,0.515640259,0.029098511
16113.16346,0.678787231,0.460540771,0.011886597
16122.84846,0.613037109,0.393920898,0.014099121
16132.53346,0.555023193,0.338195801,0.008834839
16142.21846,0.5884552,0.290756226,-0.035858154
16151.87546,0.667098999,0.265060425,-0.090820313
16161.58746,0.682525635,0.277267456,-0.137451172
16171.27146,0.655319214,0.316253662,-0.163131714
16180.93946,0.635971069,0.378646851,-0.17578125
16190.64046,0.661819458,0.433807373,-0.160507202
16200.32546,0.694442749,0.472396851,-0.163589478
16210.00946,0.729782104,0.501480103,-0.160583496
16219.69446,0.754806519,0.519393921,-0.136611938
16229.36546,0.762405396,0.54977417,-0.102615356
16239.06246,0.773345947,0.579116821,-0.070114136
16248.74746,0.788131714,0.595016479,-0.052749634
16258.41846,0.802536011,0.604705811,-0.040542603
16268.11646,0.837692261,0.604385376,-0.045822144
16277.80146,0.86265564,0.599243164,-0.066986084
16287.47146,0.874191284,0.587615967,-0.085952759
16297.17046,0.877853394,0.560195923,-0.115386963
16306.84946,0.881774902,0.525161743,-0.134277344
16316.52346,0.87890625,0.498794556,-0.141677856
16326.22346,0.872039795,0.487976074,-0.137405396
16335.90646,0.877227783,0.472198486,-0.116424561
16345.58246,0.900772095,0.469223022,-0.091659546
16355.27546,0.951782227,0.462692261,-0.087265015
16364.95846,1.036239624,0.45324707,-0.072814941
16374.64346,1.099258423,0.446365356,-0.053543091
16384.29846,1.13432312,0.424880981,-0.03692627
16394.00746,1.158050537,0.417816162,-0.041213989
16403.69846,1.155303955,0.464233398,-0.069381714
16413.35646,1.159088135,0.580230713,-0.097396851
16423.06046,1.233016968,0.684768677,-0.106811523
16432.75146,1.319992065,0.775161743,-0.082061768
16442.42846,1.372695923,0.868743896,-0.045761108
16452.11346,1.387283325,0.922149658,0.025527954
16461.79746,1.308441162,0.88710022,0.118347168
16471.48546,1.116104126,0.780471802,0.195205688
16481.15546,0.894943237,0.663040161,0.253417969
16490.84246,0.731323242,0.57649231,0.287490845
16500.52746,0.630966187,0.533615112,0.327682495
16510.20646,0.590621948,0.53742981,0.36630249
16519.89846,0.587585449,0.589065552,0.403121948
16529.58246,0.609939575,0.673934937,0.437866211
16539.28546,0.655410767,0.782516479,0.461227417
16548.96946,0.712722778,0.893722534,0.466888428
16558.65146,0.766387939,0.995025635,0.446121216
16568.33846,0.780075073,1.059356689,0.427581787
16578.02346,0.744903564,1.082046509,0.414978027
16587.70346,0.66973877,1.038269043,0.428726196
16597.39246,0.60105896,0.962036133,0.44732666
16607.07846,0.567092896,0.83883667,0.438812256
16616.75946,0.555648804,0.706481934,0.406768799
16626.44646,0.550537109,0.615325928,0.374725342
16636.13046,0.545608521,0.574798584,0.339080811
16645.80546,0.541748047,0.547012329,0.287734985
16655.49846,0.558166504,0.520217896,0.230804443
16665.18346,0.585906982,0.497955322,0.188674927
16674.86646,0.61831665,0.48109436,0.149047852
16684.55046,0.641998291,0.470794678,0.087936401
16694.23346,0.672286987,0.452774048,0.031677246
16703.91646,0.704391479,0.421707153,-0.029067993
16713.58446,0.757766724,0.381973267,-0.131210327
16723.26246,0.835998535,0.356567383,-0.451965332
16732.96346,0.857833862,0.41166687,-0.875320435
16742.64746,0.794692993,0.532150269,-0.913391113
16752.33146,0.721466064,0.574813843,-0.491073608
16762.01546,0.652862549,0.561920166,-0.136871338
16771.70146,0.614593506,0.555541992,0.046890259
16781.35746,0.624221802,0.572387695,0.152374268
16791.04246,0.655609131,0.586975098,0.218185425
16800.75246,0.68196106,0.603744507,0.262741089
16810.42846,0.702407837,0.620880127,0.269805908
16820.11946,0.713729858,0.638961792,0.245010376
16829.80246,0.717407227,0.653137207,0.187835693
16839.47846,0.725784302,0.656936646,0.120529175
16849.16646,0.749954224,0.641586304,0.032119751
16858.82146,0.775970459,0.603057861,-0.100570679
16868.53346,0.822433472,0.544235229,-0.268890381
16878.21746,0.878295898,0.510055542,-0.415618896
16887.87346,0.920410156,0.545028687,-0.454833984
16897.58446,0.928436279,0.621673584,-0.349472046
16907.26746,0.878601074,0.701538086,-0.163848877
16916.92646,0.811462402,0.730484009,0.01260376
16926.63546,0.757141113,0.702529907,0.116622925
16936.31846,0.748062134,0.644439697,0.152908325
16945.98146,0.787948608,0.616271973,0.129394531
16955.68346,0.901824951,0.684158325,0.034255981
16965.35646,1.037765503,0.746109009,-0.150665283
16975.04946,1.129379272,0.697219849,-0.374862671
16984.73046,1.159057617,0.619827271,-0.519760132
16994.38946,1.142974854,0.605560303,-0.442993164
17004.08246,1.11366272,0.717285156,-0.199295044
17013.76946,1.101791382,0.8331604,0.051803589
17023.46346,1.083190918,0.875076294,0.245056152
17033.13546,1.022567749,0.857681274,0.363967896
17042.83146,0.937591553,0.807861328,0.412628174
17052.51646,0.846786499,0.732559204,0.4400177
17062.20046,0.747390747,0.654281616,0.429672241
17071.88446,0.670074463,0.597991943,0.42024231
17081.53846,0.632202148,0.575576782,0.43421936
17091.25146,0.630828857,0.559631348,0.476394653
17100.93546,0.643280029,0.558441162,0.522705078
17110.61046,0.664108276,0.578643799,0.552825928
17120.30346,0.681900024,0.601898193,0.545730591
17129.98746,0.696838379,0.62322998,0.515029907
17139.67046,0.736175537,0.641983032,0.504730225
17149.33846,0.787796021,0.661056519,0.497940063
17159.03846,0.83921814,0.685195923,0.490386963
17168.71746,0.877990723,0.719070435,0.473953247
17178.40846,0.885513306,0.730926514,0.429000854
17188.09346,0.859558105,0.712097168,0.363983154
17197.77846,0.820968628,0.710678101,0.314178467
17207.46146,0.789672852,0.688705444,0.273117065
17217.12946,0.751754761,0.676605225,0.2396698
17226.82946,0.709716797,0.66595459,0.203491211
17236.51146,0.663391113,0.632659912,0.16204834
17246.17846,0.630004883,0.588912964,0.116867065
17255.87846,0.621170044,0.544235229,0.074264526
17265.56146,0.618789673,0.487121582,0.053039551
17275.23146,0.629959106,0.43081665,0.037490845
17284.92846,0.663589478,0.387466431,0.011032104
17294.61246,0.713699341,0.370117188,-0.036224365
17304.29646,0.766967773,0.382446289,-0.082214355
17313.98046,0.789031982,0.405029297,-0.119689941
17323.66446,0.77444458,0.424713135,-0.130599976
17333.34846,0.73500061,0.466491699,-0.113204956
17343.03146,0.703063965,0.490890503,-0.089447021
17352.68746,0.701019287,0.495727539,-0.069564819
17362.39946,0.710281372,0.489944458,-0.051773071
17372.07946,0.728866577,0.4921875,-0.033081055
17381.76146,0.754150391,0.50743103,-0.027130127
17391.45446,0.782394409,0.523025513,-0.031845093
17401.13946,0.814743042,0.534484863,-0.038833618
17410.79846,0.843765259,0.551605225,-0.054336548
17420.50946,0.871307373,0.554321289,-0.068908691
17430.19446,0.882049561,0.563796997,-0.087783813
17439.87346,0.878997803,0.559066772,-0.124435425
17449.54946,0.866760254,0.539428711,-0.164321899
17459.22346,0.851654053,0.51210022,-0.198150635
17468.93646,0.847381592,0.492752075,-0.197494507
17478.62246,0.863067627,0.482421875,-0.157684326
17488.30846,0.890075684,0.473754883,-0.084793091
17497.98146,0.915924072,0.4868927,-0.035354614
17507.67446,0.939361572,0.503067017,-0.005004883
17517.35946,0.992904663,0.501800537,0.013534546
17527.03146,1.031494141,0.494415283,0.040176392
17536.71746,1.047988892,0.476776123,0.067001343
17546.40246,1.057937622,0.453369141,0.078063965
17556.08646,1.071533203,0.427276611,0.058700562
17565.78546,1.111785889,0.443374634,0.00541687
17575.45146,1.153594971,0.526794434,-0.046234131
17585.15246,1.211105347,0.640609741,-0.081848145
17594.83646,1.282531738,0.751098633,-0.082778931
17604.50646,1.324920654,0.832809448,-0.05506897
17614.20646,1.324737549,0.858947754,0.004776001
17623.89046,1.251647949,0.815155029,0.079391479
17633.57446,1.094619751,0.736282349,0.147186279
17643.25746,0.924758911,0.644775391,0.204879761
17652.91946,0.803710938,0.581939697,0.258468628
17662.62446,0.727157593,0.55506897,0.295822144
17672.30746,0.679244995,0.565216064,0.318725586
17681.98246,0.655426025,0.619567871,0.34979248
17691.67646,0.668731689,0.694641113,0.379013062
17701.35646,0.698654175,0.78086853,0.408660889
17711.02446,0.742416382,0.87461853,0.428314209
17720.73046,0.77041626,0.946884155,0.419509888
17730.41346,0.778060913,0.981552124,0.393173218
17740.08946,0.73828125,0.953018188,0.368286133
17749.78446,0.672164917,0.858261108,0.356246948
17759.46846,0.628646851,0.721740723,0.34312439
17769.14146,0.605407715,0.588729858,0.329055786
17778.81646,0.56880188,0.50302124,0.31187439
17788.52046,0.538833618,0.459945679,0.286987305
17798.20646,0.51991272,0.442382813,0.26663208
17807.89046,0.519119263,0.440429688,0.242233276
17817.57446,0.521377563,0.435379028,0.221725464
17827.25446,0.540374756,0.413101196,0.193023682
17836.94346,0.560165405,0.412353516,0.170944214
17846.61446,0.587219238,0.427871704,0.15776062
17856.31146,0.626190186,0.460357666,0.148269653
17865.99546,0.681121826,0.492004395,0.129486084
17875.65246,0.743270874,0.521682739,0.07434082
17885.36446,0.772949219,0.550750732,-0.010955811
17895.04746,0.791900635,0.574539185,-0.113723755
17904.71946,0.808944702,0.591461182,-0.235702515
17914.41546,0.804733276,0.600662231,-0.332122803
17924.09846,0.787216187,0.616943359,-0.390319824
17933.78346,0.770645142,0.635025024,-0.311233521
17943.46946,0.76663208,0.650665283,-0.177505493
17953.12746,0.779876709,0.670928955,-0.068862915
17962.83746,0.791000366,0.680297852,0.002868652
17972.49646,0.794128418,0.66595459,0.05657959
17982.20546,0.796463013,0.646697998,0.085922241
17991.88546,0.790725708,0.627426147,0.089324951
18001.57046,0.779632568,0.601501465,0.066802979
18011.25646,0.782211304,0.561767578,-0.004867554
18020.92146,0.776916504,0.519424438,-0.094009399
18030.61146,0.772354126,0.484390259,-0.20489502
18040.29946,0.772506714,0.469406128,-0.281158447
18049.97446,0.764694214,0.49005127,-0.260101318
18059.67546,0.746963501,0.528533936,-0.166183472
18069.34146,0.71824646,0.544555664,-0.065246582
18079.04546,0.702468872,0.549514771,0.001831055
18088.72946,0.726333618,0.572494507,0.069015503
18098.41346,0.792617798,0.603363037,0.095092773
18108.08946,0.906921387,0.665771484,0.083328247
18117.78246,1.046340942,0.738449097,-0.032836914
18127.46646,1.151794434,0.738708496,-0.247131348
18137.15246,1.20111084,0.660308838,-0.474212646
18146.81546,1.176605225,0.583953857,-0.603775024
18156.51546,1.104568481,0.563262939,-0.524169922
18166.19546,1.057769775,0.648345947,-0.278167725
18175.86946,1.023544312,0.819168091,-0.020385742
18185.56246,0.990493774,0.90826416,0.190948486
18195.24646,0.934234619,0.89616394,0.319091797
18204.92046,0.85697937,0.840118408,0.371154785
18214.61346,0.791061401,0.784561157,0.420440674
18224.29646,0.73765564,0.707183838,0.448791504
18233.97346,0.691833496,0.625106812,0.45085144
18243.66746,0.65435791,0.590744019,0.453598022
18253.35146,0.645126343,0.599533081,0.474472046
18263.03646,0.66633606,0.627243042,0.511413574
18272.72046,0.69984436,0.671463013,0.556137085
18282.40446,0.751922607,0.715240479,0.583053589
18292.08846,0.801803589,0.720413208,0.59513855
18301.77146,0.849380493,0.720123291,0.601364136
18311.42746,0.888580322,0.736587524,0.606964111
18321.13846,0.917495728,0.747650146,0.5859375
18330.82146,0.912124634,0.741317749,0.543807983
18340.48046,0.863845825,0.722061157,0.473556519
18350.18746,0.791778564,0.699371338,0.380386353
18359.86646,0.729675293,0.690689087,0.309158325
18369.54446,0.684890747,0.687469482,0.252059937
18379.23746,0.659637451,0.681747437,0.200469971
18388.92246,0.640258789,0.660842896,0.160476685
18398.60446,0.620346069,0.619262695,0.119873047
18408.26046,0.58454895,0.571548462,0.090072632
18417.96946,0.564559937,0.528167725,0.071899414
18427.62946,0.620407104,0.461486816,0.035995483
18437.33546,0.736587524,0.390548706,-0.044128418
18447.01646,0.813964844,0.372421265,-0.111694336
18456.70246,0.832595825,0.376327515,-0.153305054
18466.38546,0.812515259,0.389205933,-0.175033569
18476.06946,0.778793335,0.407211304,-0.157211304
18485.74346,0.75881958,0.438369751,-0.153762817
18495.41146,0.745880127,0.466766357,-0.157989502
18505.09146,0.730667114,0.492645264,-0.139663696
18514.77946,0.731689453,0.497512817,-0.104125977
18524.48546,0.753616333,0.496917725,-0.063995361
18534.15246,0.777786255,0.504119873,-0.027557373
18543.83946,0.801193237,0.509597778,0.00479126
18553.52346,0.832336426,0.517578125,0.014678955
18563.20946,0.866546631,0.526519775,0.011962891
18572.90546,0.883422852,0.524887085,-0.010116577
18582.57646,0.893707275,0.523834229,-0.039474487
18592.27146,0.885009766,0.524429321,-0.069122314
18601.95546,0.847351074,0.541015625,-0.110107422
18611.62846,0.799026489,0.547485352,-0.160415649
18621.32246,0.772949219,0.530288696,-0.191925049
18631.00646,0.769577026,0.503494263,-0.185348511
18640.68146,0.795623779,0.477828979,-0.135528564
18650.37346,0.839874268,0.469436646,-0.069549561
18660.05646,0.896728516,0.474502563,-0.023132324
18669.73546,0.942581177,0.48765564,0.011978149
18679.42446,0.96824646,0.483947754,0.041275024
18689.10846,0.975234985,0.462677002,0.07409668
18698.78346,0.977523804,0.433273315,0.091567993
18708.47446,0.999267578,0.425765991,0.080734253
18718.13546,1.039932251,0.465362549,0.045135498
18727.83846,1.081558228,0.564987183,-0.003860474
18737.52446,1.143371582,0.682983398,-0.014282227
18747.20646,1.227340698,0.78477478,0.005310059
18756.88946,1.282836914,0.836486816,0.05909729
18766.56646,1.290603638,0.845169067,0.124954224
18776.25646,1.208969116,0.827163696,0.193954468
18785.93946,1.050415039,0.757141113,0.253234863
18795.62246,0.895812988,0.661895752,0.302780151
18805.29046,0.779602051,0.601333618,0.333984375
18814.98246,0.701873779,0.575210571,0.35458374
18824.67246,0.667098999,0.58480835,0.369812012
18834.34546,0.653320313,0.631271362,0.391662598
18844.01846,0.670455933,0.713088989,0.418807983
18853.72046,0.716995239,0.811187744,0.431640625
18863.39846,0.771240234,0.91104126,0.416976929
18873.08246,0.795639038,1.005432129,0.38381958
18882.75346,0.794235229,1.061538696,0.353042603
18892.42646,0.754547119,1.05166626,0.343719482
18902.12346,0.707931519,0.951156616,0.331741333
18911.80446,0.686676025,0.773239136,0.296615601
18921.48646,0.65826416,0.62512207,0.245422363
18931.17146,0.63192749,0.555053711,0.20501709
18940.85346,0.634567261,0.547180176,0.187942505
18950.53846,0.676254272,0.5443573,0.183746338
18960.24046,0.717544556,0.50994873,0.16796875
18969.90646,0.766784668,0.471969604,0.088409424
18979.53246,0.802307129,0.43119812,-0.04800415
18989.20946,0.78918457,0.415710449,-0.189559937
18998.90446,0.735855103,0.415374756,-0.346298218
19008.58546,0.661865234,0.424530029,-0.475601196
19018.26346,0.586837769,0.452728271,-0.499130249
19027.93446,0.548233032,0.479202271,-0.365478516
19037.62546,0.553314209,0.507385254,-0.179763794
19047.31046,0.574996948,0.530181885,-0.047531128
19057.00146,0.60774231,0.573120117,0.056869507
19066.69346,0.63999939,0.590408325,0.144638062
19076.37546,0.675140381,0.607696533,0.228683472
19086.06046,0.704788208,0.614196777,0.281921387
19095.74346,0.721939087,0.622512817,0.314071655
19105.42846,0.728164673,0.635253906,0.32749939
19115.11146,0.732818604,0.640075684,0.306503296
19124.79446,0.722549438,0.616775513,0.259185791
19134.47046,0.711090088,0.582275391,0.184661865
19144.16146,0.711044312,0.546722412,0.099456787
19153.84246,0.731887817,0.512908936,-0.008804321
19163.52246,0.767333984,0.480758667,-0.159286499
19173.21046,0.817367554,0.450210571,-0.383666992
19182.89446,0.843215942,0.439849854,-0.664352417
19192.55146,0.859817505,0.530883789,-0.687469482
19202.26046,0.851257324,0.680038452,-0.402328491
19211.94646,0.802093506,0.748901367,-0.131317139
19221.62246,0.771087646,0.739379883,0.045883179
19231.31246,0.74609375,0.676773071,0.143966675
19240.99546,0.721435547,0.641616821,0.212875366
19250.67846,0.730819702,0.615203857,0.250640869
19260.36246,0.778152466,0.627151489,0.255249023
19270.03246,0.907562256,0.722213745,0.211303711
19279.72546,1.082077026,0.830001831,0.050750732
19289.40946,1.255661011,0.847015381,-0.288375854
19299.08146,1.390075684,0.821151733,-0.798416138
19308.77546,1.373382568,0.746276855,-0.884292603
19318.45846,1.224105835,0.73840332,-0.447509766
19328.13046,1.071411133,0.784057617,-0.035003662
19337.82646,0.981567383,0.832305908,0.191390991
19347.45433,0.918380737,0.889190674,0.312194824
19357.12833,0.863494873,0.944671631,0.407089233
19366.82033,0.806991577,0.920028687,0.501174927
19376.49233,0.757507324,0.831451416,0.552429199
19386.17933,0.695144653,0.699371338,0.559494019
19395.86933,0.629989624,0.599594116,0.546936035
19405.55433,0.59564209,0.567932129,0.558029175
19415.23633,0.583694458,0.55255127,0.566513062
19424.91033,0.576095581,0.554794312,0.576370239
19434.58433,0.569992065,0.553573608,0.568267822
19444.28533,0.564071655,0.560440063,0.543746948
19453.96733,0.574707031,0.580383301,0.523269653
19463.64433,0.611480713,0.603973389,0.509490967
19473.33433,0.680786133,0.658065796,0.504364014
19483.01833,0.758895874,0.710083008,0.488204956
19492.69033,0.811035156,0.744659424,0.454681396
19502.38633,0.864196777,0.797897339,0.407501221
19512.06433,0.911575317,0.808013916,0.349960327
19521.73233,0.935913086,0.795761108,0.311553955
19531.41633,0.937713623,0.758392334,0.285095215
19541.09833,0.908996582,0.71194458,0.253204346
19550.79233,0.861907959,0.644577026,0.205856323
19560.46633,0.828231812,0.593856812,0.154342651
19570.14733,0.793167114,0.54119873,0.108398438
19579.84233,0.763671875,0.481002808,0.073669434
19589.52233,0.750808716,0.408828735,0.054092407
19599.19633,0.768875122,0.348815918,0.009521484
19608.88333,0.808319092,0.304351807,-0.064239502
19618.56333,0.847183228,0.287734985,-0.134185791
19628.22033,0.838851929,0.297470093,-0.185623169
19637.92233,0.789413452,0.298217773,-0.211334229
19647.60433,0.728713989,0.333679199,-0.218170166
19657.28533,0.677276611,0.403381348,-0.214431763
19666.97233,0.660903931,0.463943481,-0.211868286
19676.65433,0.677047729,0.505218506,-0.198120117
19686.33033,0.701583862,0.529891968,-0.164077759
19696.02133,0.719497681,0.545043945,-0.126846313
19705.70533,0.739257813,0.538223267,-0.089782715
19715.38733,0.763961792,0.538528442,-0.072540283
19725.07233,0.789657593,0.530578613,-0.069000244
19734.75533,0.807922363,0.526000977,-0.069381714
19744.43833,0.812072754,0.514602661,-0.071853638
19754.11633,0.807800293,0.506362915,-0.085388184
19763.77833,0.792434692,0.499023438,-0.109634399
19773.48533,0.782043457,0.490859985,-0.11151123
19783.16933,0.785385132,0.489196777,-0.078109741
19792.83033,0.805526733,0.500015259,-0.038482666
19802.53633,0.83555603,0.515289307,0.004837036
19812.21933,0.872817993,0.52532959,0.036529541
19821.87733,0.939239502,0.512878418,0.067306519
19831.55733,0.998504639,0.50692749,0.092849731
19841.26933,1.031341553,0.494369507,0.107437134
19850.94633,1.055618286,0.476318359,0.098266602
19860.63533,1.082809448,0.440933228,0.039413452
19870.31833,1.091583252,0.411590576,-0.045928955
19880.00133,1.06880188,0.419830322,-0.121337891
19889.68433,1.076538086,0.468383789,-0.185668945
19899.36133,1.141235352,0.556167603,-0.206176758
19909.04833,1.238372803,0.66027832,-0.179214478
19918.73233,1.291992188,0.76461792,-0.113555908
19928.38933,1.238922119,0.809020996,-0.028060913
19938.09433,1.110321045,0.772506714,0.0859375
19947.78433,0.990234375,0.717681885,0.186386108
19957.44133,0.914215088,0.688034058,0.275238037
19967.13633,0.879806519,0.712173462,0.349197388
19976.83733,0.863861084,0.753143311,0.407592773
19986.51833,0.846984863,0.797607422,0.472610474
19996.18533,0.825164795,0.847595215,0.532394409
20005.88733,0.816299438,0.909713745,0.57649231
20015.57333,0.810211182,0.968414307,0.591064453
20025.24333,0.797149658,1.007064819,0.556289673
20034.92633,0.751968384,1.007827759,0.491897583
20044.61233,0.67956543,0.975662231,0.435333252
20054.29733,0.601821899,0.892944336,0.395080566
20063.97933,0.545303345,0.810058594,0.359939575
20073.68233,0.503097534,0.722351074,0.324172974
20083.34133,0.477203369,0.631591797,0.275619507
20093.03133,0.459182739,0.552307129,0.215301514
20102.73433,0.459793091,0.507171631,0.172866821
20112.41633,0.490280151,0.482559204,0.159698486
20122.08433,0.556304932,0.457870483,0.16355896
20131.78333,0.659393311,0.430801392,0.140075684
20141.46533,0.786712646,0.407791138,0.041107178
20151.14033,0.899490356,0.422531128,-0.114044189
20160.83233,0.948501587,0.476425171,-0.305587769
20170.51533,0.917098999,0.488952637,-0.461578369
20180.19833,0.857315063,0.482788086,-0.500213623
20189.88233,0.779769897,0.464767456,-0.425521851
20199.56633,0.699157715,0.492660522,-0.297134399
20209.24433,0.638626099,0.556427002,-0.141998291
20218.93433,0.606292725,0.619232178,-0.029541016
20228.61733,0.591751099,0.646026611,0.073196411
20238.30233,0.596359253,0.664428711,0.149490356
20247.95133,0.610549927,0.673538208,0.207244873
20257.65633,0.623504639,0.66317749,0.264358521
20267.35133,0.646118164,0.635147095,0.291854858
20277.03533,0.674468994,0.613571167,0.289840698
20286.70233,0.706344604,0.597137451,0.241012573
20296.40233,0.736724854,0.546401978,0.137176514
20306.08333,0.772064209,0.517410278,0.018829346
20315.75133,0.820602417,0.482833862,-0.131774902
20325.44833,0.862930298,0.46232605,-0.399108887
20335.13033,0.900405884,0.47795105,-0.643417358
20344.81333,0.900863647,0.594848633,-0.614807129
20354.49633,0.838577271,0.736663818,-0.30406189
20364.18033,0.758026123,0.794876099,-0.019973755
20373.86333,0.713256836,0.793075562,0.154678345
20383.54733,0.69203186,0.747665405,0.210525513
20393.20333,0.704238892,0.657241821,0.167922974
20402.91133,0.764511108,0.55065918,0.020706177
20412.58933,0.8934021,0.454971313,-0.276351929
20422.25533,1.069015503,0.44354248,-0.636688232
20431.96133,1.193084717,0.479919434,-0.78968811
20441.63433,1.185714722,0.606689453,-0.5362854
20451.30833,1.064102173,0.70916748,-0.191925049
20461.01133,0.952957153,0.770782471,0.03515625
20470.69433,0.886352539,0.849029541,0.185287476
20480.36933,0.864242554,0.921722412,0.286758423
20490.03533,0.897903442,0.985671997,0.375671387
20499.74233,0.941711426,1.009429932,0.451812744
20509.40433,0.933609009,0.957611084,0.519668579
20519.09333,0.85496521,0.82975769,0.557983398
20528.78133,0.745223999,0.683547974,0.537689209
20538.44733,0.653701782,0.566375732,0.477462769
20548.13133,0.595214844,0.493011475,0.441650391
20557.81433,0.571121216,0.4556427,0.432769775
20567.49433,0.570343018,0.447479248,0.443389893
20577.17533,0.589569092,0.464630127,0.464096069
20586.86733,0.626464844,0.514266968,0.476028442
20596.55733,0.689987183,0.586364746,0.482086182
20606.23933,0.791824341,0.674407959,0.48248291
20615.91233,0.899108887,0.78503418,0.491149902
20625.60633,0.977676392,0.901809692,0.478759766
20635.28833,1.022491455,0.979202271,0.426635742
20644.94233,1.03427124,0.973800659,0.341384888
20654.65333,1.001800537,0.902191162,0.269546509
20664.33633,0.923019409,0.797607422,0.216567993
20674.02033,0.811950684,0.711715698,0.167922974
20683.70333,0.705337524,0.638870239,0.10508728
20693.36333,0.653518677,0.574462891,0.018005371
20703.06733,0.641967773,0.51121521,-0.073608398
20712.74933,0.644348145,0.480834961,-0.128448486
20722.42633,0.646652222,0.43409729,-0.156005859
20732.11533,0.658126831,0.379821777,-0.114715576
20741.79833,0.680603027,0.352508545,-0.051223755
20751.47333,0.707382202,0.363265991,0.000518799
20761.16733,0.724960327,0.399108887,0.043212891
20770.85033,0.723770142,0.430633545,0.066268921
20780.52433,0.719207764,0.458465576,0.087936401
20790.21633,0.724060059,0.469116211,0.102737427
20799.88033,0.7240448,0.472351074,0.107696533
20809.58133,0.712646484,0.472106934,0.100234985
20819.26633,0.710342407,0.474151611,0.082748413
20828.94833,0.713256836,0.479705811,0.062744141
20838.63133,0.727249146,0.504699707,0.041488647
20848.31433,0.757873535,0.528640747,0.003540039
20857.98533,0.790084839,0.557006836,-0.052642822
20867.68133,0.809036255,0.578308105,-0.09992981
20877.36433,0.82901001,0.579452515,-0.148178101
20887.04833,0.843353271,0.573379517,-0.192672729
20896.71233,0.853820801,0.5440979,-0.223983765
20906.41833,0.859405518,0.509506226,-0.2318573
20916.09133,0.861053467,0.473449707,-0.203521729
20925.78533,0.867645264,0.456344604,-0.143264771
20935.46833,0.874267578,0.461456299,-0.067306519
20945.14533,0.884414673,0.47164917,-0.020111084
20954.83633,0.922470093,0.466018677,0.020019531
20964.51933,0.964157104,0.471603394,0.055435181
20974.17533,1.004653931,0.478271484,0.078033447
20983.88733,1.047714233,0.49319458,0.083999634
20993.54533,1.082046509,0.51411438,0.039215088
21003.23233,1.092773438,0.522964478,-0.061065674
21012.93133,1.090148926,0.527526855,-0.15838623
21022.60233,1.101791382,0.551681519,-0.200119019
21032.28233,1.150161743,0.623504639,-0.141098022
21041.97033,1.230056763,0.717697144,-0.053207397
21051.65033,1.269363403,0.826187134,0.01133728
21061.33733,1.276489258,0.893798828,0.075057983
21071.01933,1.215103149,0.866500854,0.150177002
21080.70533,1.100341797,0.773773193,0.231079102
21090.40133,0.957733154,0.71031189,0.298202515
21100.08133,0.85484314,0.665863037,0.364151001
21109.75933,0.787643433,0.644760132,0.419158936
21119.44833,0.747543335,0.661895752,0.471054077
21129.13033,0.739517212,0.721343994,0.524169922
21138.81333,0.754943848,0.814208984,0.55859375
21148.49633,0.777420044,0.906997681,0.557312012
21158.15633,0.797683716,0.988586426,0.538757324
21167.86133,0.793533325,1.021209717,0.511489868
21177.54333,0.746871948,1.003799438,0.486572266
21187.22633,0.662368774,0.944412231,0.47026062
21196.90933,0.592880249,0.852600098,0.440719604
21206.59333,0.556182861,0.728561401,0.386367798
21216.26233,0.523147583,0.611297607,0.317459106
21225.95533,0.477645874,0.52432251,0.237304688
21235.64033,0.455718994,0.473709106,0.169647217
21245.31233,0.463348389,0.443450928,0.109054565
21255.00433,0.499542236,0.436126709,0.06817627
21264.68633,0.553482056,0.404846191,0.042755127
21274.36133,0.623550415,0.375030518,0.002212524
21284.04933,0.689071655,0.333679199,-0.087219238
21293.73333,0.727523804,0.322433472,-0.198165894
21303.38933,0.721359253,0.335998535,-0.29536438
21313.09733,0.679519653,0.371078491,-0.349487305
21322.76733,0.629928589,0.41569519,-0.340072632
21332.46333,0.617355347,0.450424194,-0.242477417
21342.14533,0.60874939,0.49180603,-0.111038208
21351.82133,0.609375,0.548202515,-0.017211914
21361.51133,0.625808716,0.592483521,0.062393188
21371.19433,0.652099609,0.622314453,0.13571167
21380.87333,0.68510437,0.659088135,0.197906494
21390.55833,0.733123779,0.686340332,0.240020752
21400.24133,0.776229858,0.715072632,0.262176514
21409.89633,0.813568115,0.725769043,0.258926392
21419.60533,0.837661743,0.730484009,0.217559814
21429.27133,0.852508545,0.723190308,0.160522461
21438.97033,0.8671875,0.701599121,0.086502075
21448.65033,0.874130249,0.661819458,-0.008102417
21458.32733,0.873840332,0.602981567,-0.126266479
21468.01633,0.870697021,0.568191528,-0.259124756
21477.67533,0.86807251,0.524688721,-0.43081665
21487.38333,0.852142334,0.531143188,-0.513122559
21497.05433,0.810913086,0.595245361,-0.351577759
21506.73333,0.75151062,0.655014038,-0.134155273
21516.42233,0.707458496,0.648605347,0.006195068
21526.11433,0.703872681,0.628494263,0.1144104
21535.78133,0.710693359,0.628875732,0.182449341
21545.47233,0.735046387,0.651000977,0.221969604
21555.15333,0.791641235,0.674804688,0.209732056
21564.82933,0.890975952,0.713134766,0.12940979
21574.50733,0.994628906,0.733917236,-0.019561768
21584.20433,1.064422607,0.701065063,-0.217346191
21593.88633,1.095733643,0.644790649,-0.373550415
21603.57033,1.096557617,0.652374268,-0.340911865
21613.25433,1.057556152,0.787750244,-0.136611938
21622.93733,0.990097046,0.957855225,0.058731079
21632.61433,0.969177246,1.040817261,0.219451904
21642.30233,0.96913147,1.041473389,0.381225586
21651.96133,0.933013916,1.001144409,0.500518799
21661.67033,0.848358154,0.895675659,0.539413452
21671.35133,0.737838745,0.779327393,0.515075684
21681.01433,0.640258789,0.721359253,0.494400024
21690.71933,0.596282959,0.687606812,0.504241943
21700.40233,0.592010498,0.639755249,0.518981934
21710.06033,0.597564697,0.601074219,0.520324707
21719.77033,0.60218811,0.564117432,0.498962402
21729.45333,0.609100342,0.539505005,0.454696655
21739.12333,0.648712158,0.555679321,0.424926758
21748.82033,0.73399353,0.609466553,0.412643433
21758.49833,0.830169678,0.681671143,0.401550293
21768.18733,0.90725708,0.749023438,0.395126343
21777.87033,0.955627441,0.78692627,0.368362427
21787.55333,0.962081909,0.785568237,0.309997559
21797.23533,0.930221558,0.73890686,0.260894775
21806.91733,0.883560181,0.671020508,0.235641479
21816.57333,0.834136963,0.609588623,0.223693848
21826.28433,0.778762817,0.546691895,0.201889038
21835.95233,0.717727661,0.501815796,0.168777466
21845.62633,0.664505005,0.462341309,0.128601074
21855.33233,0.62097168,0.45098877,0.10256958
21865.01433,0.595199585,0.456390381,0.08013916
21874.68833,0.591964722,0.450119019,0.053726196
21884.37933,0.62272644,0.428497314,0.016891479
21894.06033,0.68208313,0.408401489,-0.023849487
21903.74233,0.723358154,0.404174805,-0.059631348
21913.39633,0.734100342,0.411331177,-0.067993164
21923.08033,0.720855713,0.424438477,-0.051986694
21932.79133,0.715927124,0.443069458,-0.021957397
21942.47533,0.715835571,0.460342407,-0.000915527
21952.13333,0.716522217,0.488296509,0.010925293
21961.83733,0.727294922,0.518875122,0.01449585
21971.52633,0.742645264,0.544769287,0.009902954
21981.18533,0.761734009,0.558120728,0.003692627
21990.87933,0.781021118,0.549758911,-0.008743286
22000.57133,0.79019165,0.53956604,-0.019668579
22010.25933,0.805862427,0.53352356,-0.030410767
22019.92333,0.821487427,0.520675659,-0.047286987
22029.60933,0.821884155,0.510482788,-0.065887451
22039.29633,0.818649292,0.501327515,-0.085403442
22048.97733,0.814224243,0.499023438,-0.11579895
22058.66233,0.807662964,0.482162476,-0.135864258
22068.36333,0.813079834,0.463119507,-0.145187378
22078.04733,0.830947876,0.450210571,-0.11164856
22087.73333,0.863037109,0.441848755,-0.049728394
22097.41733,0.888137817,0.463012695,0.019378662
22107.10133,0.902450562,0.511276245,0.066970825
22116.77433,0.948654175,0.53012085,0.102523804
22126.46933,1.018920898,0.533691406,0.132873535
22136.15133,1.079055786,0.560516357,0.147384644
22145.82033,1.120803833,0.586196899,0.13760376
22155.51733,1.167495728,0.596359253,0.092895508
22165.19433,1.209609985,0.595291138,0.02293396
22174.88033,1.240966797,0.616470337,-0.033370972
22184.56633,1.256958008,0.681930542,-0.047241211
22194.25133,1.275817871,0.753860474,-0.037612915
22203.92833,1.28968811,0.781234741,-0.002304077
22213.61933,1.276199341,0.751419067,0.049468994
22223.30533,1.202636719,0.688964844,0.096343994
22232.98833,1.084365845,0.636993408,0.139022827
22242.67233,0.94682312,0.592559814,0.186462402
22252.35633,0.809432983,0.561599731,0.23109436
22262.03833,0.711349487,0.540908813,0.277816772
22271.72133,0.662109375,0.519790649,0.316345215
22281.38433,0.65272522,0.522583008,0.349807739
22291.08733,0.652572632,0.573318481,0.386520386
22300.76933,0.667892456,0.667694092,0.421234131
22310.44033,0.694503784,0.77696228,0.45513916
22320.13833,0.722213745,0.87727356,0.478775024
22329.82233,0.733901978,0.937988281,0.478668213
22339.49633,0.723342896,0.963348389,0.469909668
22349.19133,0.698226929,0.953598022,0.470062256
22358.87433,0.659729004,0.920333862,0.473190308
22368.53233,0.628540039,0.826324463,0.465957642
22378.17633,0.614929199,0.692169189,0.429595947
22387.86033,0.606552124,0.575790405,0.378631592
22397.53333,0.592773438,0.515579224,0.327529907
22407.22833,0.587646484,0.498138428,0.285522461
22416.90633,0.590835571,0.485443115,0.24230957
22426.58833,0.592590332,0.480392456,0.206573486
22436.28133,0.592819214,0.480834961,0.171707153
22445.96633,0.597732544,0.474960327,0.11138916
22455.65033,0.620391846,0.47479248,0.051254272
22465.33333,0.671630859,0.475372314,-0.020889282
22475.00433,0.745056152,0.491195679,-0.127700806
22484.70233,0.791046143,0.530792236,-0.285217285
22494.38533,0.791534424,0.557342529,-0.434951782
22504.05733,0.75,0.557662964,-0.501708984
22513.75133,0.714004517,0.548706055,-0.389831543
22523.43633,0.689178467,0.562957764,-0.182052612
22533.10333,0.676239014,0.561431885,-0.02293396
22542.80633,0.687225342,0.565292358,0.087585449
22552.49133,0.709274292,0.587539673,0.16758728
22562.15233,0.731140137,0.619918823,0.224502563
22571.83633,0.746826172,0.64112854,0.2631073
22581.54733,0.751312256,0.641616821,0.275085449
22591.21533,0.747817993,0.62461853,0.262512207
22600.91633,0.745239258,0.611190796,0.237838745
22610.60233,0.750686646,0.593444824,0.194671631
22620.28033,0.769088745,0.563369751,0.134567261
22629.89033,0.796798706,0.524932861,0.056533813
22639.57733,0.818359375,0.489273071,-0.047592163
22649.25533,0.844085693,0.469177246,-0.181549072
22658.96333,0.867904663,0.4427948,-0.350296021
22668.64433,0.860687256,0.453826904,-0.444076538
22678.33333,0.815170288,0.53704834,-0.36390686
22688.01833,0.756027222,0.625289917,-0.179000854
22697.70733,0.726394653,0.662658691,-0.056182861
22707.39233,0.745498657,0.701431274,0.033126831
22717.07833,0.823913574,0.765350342,0.096313477
22726.73933,0.916061401,0.83026123,0.108886719
22736.41333,1.015563965,0.860946655,0.083465576
22746.10233,1.087677002,0.821731567,0.004257202
22755.78933,1.08984375,0.72694397,-0.123672485
22765.50133,1.078521729,0.681259155,-0.203094482
22775.18633,1.082015991,0.699661255,-0.191635132
22784.86533,1.081039429,0.776199341,-0.075897217
22794.55933,1.020736694,0.861297607,0.067184448
22804.24433,0.936416626,0.884490967,0.199798584
22813.92933,0.856887817,0.862197876,0.291442871
22823.61433,0.789306641,0.822036743,0.341308594
22833.30333,0.725326538,0.769805908,0.363388062
22842.98833,0.677047729,0.734985352,0.371200562
22852.67333,0.67199707,0.707382202,0.408782959
22862.35833,0.694046021,0.674621582,0.457305908
22872.03833,0.719985962,0.642593384,0.497192383
22881.72933,0.729309082,0.623092651,0.534667969
22891.40033,0.74041748,0.622375488,0.548828125
22901.10033,0.756072998,0.632614136,0.538772583
22910.78633,0.798416138,0.649612427,0.52746582
22920.44433,0.859802246,0.673736572,0.518173218
22930.15633,0.926330566,0.700836182,0.524932861
22939.84133,0.969451904,0.72265625,0.520401001
22949.51233,0.966201782,0.735961914,0.477890015
22959.21033,0.928421021,0.715194702,0.423614502
22968.89533,0.872573853,0.67515564,0.370849609
22978.58133,0.810714722,0.624099731,0.324798584
22988.26533,0.746200562,0.576202393,0.281494141
22997.93733,0.697296143,0.545059204,0.237075806
23007.63933,0.665542603,0.529144287,0.19720459
23017.30033,0.64352417,0.514816284,0.167739868
23026.98933,0.63079834,0.490783691,0.143600464
23036.69533,0.627243042,0.483764648,0.133834839
23046.38233,0.643753052,0.467514038,0.138916016
23056.04233,0.657440186,0.442062378,0.139801025
23065.75233,0.672653198,0.424560547,0.119003296
23075.42133,0.682296753,0.412597656,0.093078613
23085.11733,0.695053101,0.392532349,0.06741333
23094.79233,0.698364258,0.35484314,0.041809082
23104.46733,0.71156311,0.306915283,0.00932312
23114.17233,0.749557495,0.285736084,-0.039230347
23123.83933,0.805847168,0.305038452,-0.128097534
23133.52433,0.837875366,0.356002808,-0.23260498
23143.21033,0.837493896,0.400466919,-0.340011597
23152.89433,0.835205078,0.443222046,-0.458984375
23162.58033,0.850036621,0.46685791,-0.514160156
23172.28233,0.871002197,0.484085083,-0.486801147
23181.96933,0.881500244,0.495910645,-0.405838013
23191.63333,0.900314331,0.502822876,-0.321289063
23201.33933,0.920913696,0.524627686,-0.254165649
23211.02433,0.93977356,0.52545166,-0.196212769
23220.68533,0.946868896,0.514572144,-0.1355896
23230.39233,0.928192139,0.497055054,-0.082244873
23240.07733,0.915130615,0.467575073,-0.022384644
23249.75233,0.899475098,0.468231201,0.051849365
23259.44733,0.906158447,0.476119995,0.131103516
23269.13233,0.896499634,0.526077271,0.198577881
23278.79033,0.898773193,0.559555054,0.232833862
23288.50333,0.901763916,0.5987854,0.251144409
23298.18733,0.904769897,0.615127563,0.274627686
23307.87333,0.899017334,0.632369995,0.285827637
23317.55833,0.915908813,0.639663696,0.261077881
23327.24333,0.927536011,0.666687012,0.199554443
23336.92833,0.950714111,0.705856323,0.112503052
23346.61133,1.031433105,0.747436523,0.027542114
23356.27733,1.144073486,0.796905518,-0.021606445
23365.98033,1.229919434,0.853012085,-0.043823242
23375.66633,1.268005371,0.848068237,-0.049636841
23385.34733,1.269882202,0.766235352,0.013885498
23395.03633,1.208786011,0.686309814,0.127288818
23404.72033,1.102081299,0.599609375,0.22164917
23414.39733,0.977249146,0.547851563,0.29737854
23424.09033,0.856628418,0.531188965,0.340179443
23433.75833,0.740463257,0.531219482,0.374084473
23443.46133,0.650970459,0.547332764,0.402191162
23453.14733,0.604187012,0.583572388,0.43119812
23462.83333,0.589401245,0.636810303,0.463760376
23472.51933,0.600692749,0.676849365,0.493865967
23482.19033,0.610900879,0.716506958,0.516983032
23491.86433,0.617553711,0.799133301,0.545379639
23501.57433,0.639541626,0.904602051,0.563186646
23511.25833,0.667312622,0.963760376,0.566375732
23520.91633,0.712158203,0.968170166,0.527435303
23530.62733,0.755584717,0.914337158,0.432723999
23540.31133,0.792709351,0.75553894,0.27696228
23549.97033,0.825531006,0.584838867,0.058868408
23559.67933,0.85925293,0.474441528,-0.084960938
23569.36233,0.880249023,0.42868042,-0.143417358
23579.03733,0.879302979,0.424026489,-0.1381073
23588.73133,0.855484009,0.450592041,-0.099899292
23598.40133,0.760131836,0.517364502,-0.080947876
23608.08633,0.628387451,0.560409546,-0.067077637
23617.76733,0.541229248,0.545394897,-0.013961792
23627.45133,0.500289917,0.539306641,0.058563232
23637.13633,0.476379395,0.527603149,0.115875244
23646.82033,0.464767456,0.50428772,0.15737915
23656.50633,0.451797485,0.495498657,0.198913574
23666.20633,0.438323975,0.499420166,0.240844727
23675.89033,0.447555542,0.502990723,0.282287598
23685.55033,0.468521118,0.51399231,0.28288269
23695.55033,0.479324341,0.54019165,0.26902771
23705.19033,0.518859863,0.569869995,0.229263306
23714.87833,0.578201294,0.590087891,0.178588867
23724.55833,0.64692688,0.615493774,0.096542358
23734.23133,0.709274292,0.64390564,0.011184692
23743.92933,0.76739502,0.675521851,-0.07383728
23753.58733,0.811004639,0.695983887,-0.153915405
23763.28133,0.834152222,0.6847229,-0.221008301
23772.98333,0.855987549,0.667526245,-0.24609375
23782.65833,0.871078491,0.646759033,-0.241210938
23792.35133,0.87802124,0.619171143,-0.215057373
23802.03633,0.881744385,0.602310181,-0.199752808
23811.71333,0.871780396,0.575363159,-0.154510498
23821.40633,0.838485718,0.585968018,-0.089523315
23831.09133,0.759414673,0.644470215,-0.012924194
23840.77633,0.665725708,0.686920166,0.062057495
23850.46133,0.564041138,0.71937561,0.109893799
23860.14633,0.48387146,0.751068115,0.161178589
23869.82233,0.440658569,0.784362793,0.203277588
23879.51433,0.464447021,0.848297119,0.229553223
23889.17633,0.613830566,0.922348022,0.226379395
23898.88233,0.848495483,0.930099487,0.086715698
23908.56633,1.031143188,0.901275635,-0.141418457
23918.22933,1.171539307,0.809020996,-0.356872559
23927.93233,1.267089844,0.714477539,-0.488174438
23937.61533,1.319503784,0.683319092,-0.467453003
23947.28233,1.300003052,0.80178833,-0.294403076
23956.98433,1.216308594,0.900787354,-0.064788818
23966.66733,1.088195801,0.963256836,0.136886597
23976.33833,0.950195313,0.976409912,0.307525635
23986.03633,0.822036743,0.958145142,0.446807861
23995.72033,0.696426392,0.933547974,0.511016846
24005.40533,0.596389771,0.893203735,0.507720947
24015.08933,0.513565063,0.806411743,0.482116699
24024.76833,0.4584198,0.709121704,0.467910767
24034.45733,0.444549561,0.617355347,0.497589111
24044.14133,0.460220337,0.552597046,0.53427124
24053.81933,0.480575562,0.528442383,0.577438354
24063.50933,0.512329102,0.528121948,0.615936279
24073.18933,0.549880981,0.557632446,0.630203247
24082.87233,0.617752075,0.622680664,0.644317627
24092.56233,0.707168579,0.701583862,0.645141602
24102.24633,0.814407349,0.778076172,0.63458252
24111.92133,0.913040161,0.826049805,0.61618042
24121.61633,0.996734619,0.850097656,0.592651367
24131.30033,1.055404663,0.871963501,0.540390015
24140.98433,1.088821411,0.830444336,0.443481445
24150.65133,1.069519043,0.707733154,0.326065063
24160.35333,1.045837402,0.598587036,0.248504639
24170.03833,1.022506714,0.492889404,0.147888184
24179.70733,0.973464966,0.393722534,0.029388428
24189.37833,0.892578125,0.304336548,-0.076690674
24199.08333,0.8334198,0.251205444,-0.209899902
24208.76933,0.856506348,0.25378418,-0.303878784
24218.43333,0.85345459,0.287872314,-0.348480225
24228.13033,0.797744751,0.339706421,-0.316635132
24237.79833,0.698074341,0.395065308,-0.214782715
24247.49833,0.597106934,0.421401978,-0.116348267
24257.16633,0.53918457,0.424560547,-0.063247681
24266.85033,0.523742676,0.41809082,-0.041549683
24276.54233,0.524307251,0.412155151,-0.004776001
24286.23533,0.531356812,0.412475586,0.03187561
24295.91833,0.542312622,0.426727295,0.062026978
24305.60233,0.566696167,0.443954468,0.086669922
24315.28633,0.593521118,0.453659058,0.102645874
24324.96933,0.628143311,0.457901001,0.120574951
